imu0_acc_x,imu0_acc_y,imu0_acc_z,imu0_gyro_x,imu0_gyro_y,imu0_gyro_z,imu0_roll,imu0_pitch,imu0_yaw,imu0_timestamp,imu1_acc_x,imu1_acc_y,imu1_acc_z,imu1_gyro_x,imu1_gyro_y,imu1_gyro_z,imu1_roll,imu1_pitch,imu1_yaw,imu1_timestamp,dorsiflexion_angle
366.94,-257.08,896.73,0.06,-0.43,-0.24,-23.54,-14.47,34.5,2025-03-12T10:13:30.326333,975.59,-129.88,-192.14,-0.98,0.12,-0.12,-103.68,-6.51,16.79,2025-03-12T10:13:30.326333,0.01347215469649328
366.46,-256.59,892.58,0.18,-0.43,-0.24,-23.54,-14.47,34.51,2025-03-12T10:13:30.338348,977.29,-124.76,-197.02,-0.06,-0.12,0.12,-103.68,-6.52,16.79,2025-03-12T10:13:30.338348,0.02934859746044415
365.97,-257.57,901.61,0.0,-0.37,-0.49,-23.54,-14.48,34.53,2025-03-12T10:13:30.373542,976.56,-135.99,-197.51,-0.55,-0.43,-0.49,-103.67,-6.52,16.83,2025-03-12T10:13:30.373542,0.047709837407297125
371.83,-255.37,894.78,0.0,-0.24,0.0,-23.54,-14.47,34.53,2025-03-12T10:13:30.438106,979.0,-135.5,-200.2,-1.04,0.12,-0.3,-103.66,-6.52,16.82,2025-03-12T10:13:30.438106,0.05930849940121341
365.97,-252.2,901.37,0.3,-0.06,-0.3,-23.54,-14.47,34.54,2025-03-12T10:13:30.442196,971.92,-124.27,-198.97,-0.37,0.0,-0.85,-103.65,-6.51,16.85,2025-03-12T10:13:30.442196,0.07031364299714171
370.36,-253.66,893.07,0.18,-0.06,-0.55,-23.53,-14.46,34.54,2025-03-12T10:13:30.477643,969.97,-134.28,-188.23,-0.55,0.37,-0.06,-103.64,-6.5,16.84,2025-03-12T10:13:30.477643,0.0776162132491773
371.09,-260.01,895.51,0.06,-0.61,-0.43,-23.53,-14.45,34.54,2025-03-12T10:13:30.544099,970.7,-131.84,-202.15,0.55,-0.06,-0.06,-103.64,-6.49,16.83,2025-03-12T10:13:30.544099,0.09468565084689948
370.61,-249.27,892.58,-0.06,-0.3,-0.18,-23.53,-14.44,34.55,2025-03-12T10:13:30.547421,977.54,-133.06,-196.78,-0.67,0.55,0.12,-103.64,-6.47,16.85,2025-03-12T10:13:30.547421,0.10261473201890792
363.28,-243.16,905.52,-0.18,-1.1,-0.18,-23.52,-14.43,34.56,2025-03-12T10:13:30.582786,969.48,-129.39,-189.7,0.79,0.67,0.0,-103.64,-6.45,16.87,2025-03-12T10:13:30.582786,0.1173537091308198
371.09,-254.88,896.24,0.0,-1.34,0.0,-23.51,-14.42,34.56,2025-03-12T10:13:30.635480,978.76,-140.38,-198.97,3.6,0.18,-0.3,-103.64,-6.43,16.9,2025-03-12T10:13:30.635480,0.139346166512585
372.07,-257.32,896.24,-0.06,-1.1,-0.06,-23.51,-14.4,34.61,2025-03-12T10:13:30.653990,968.51,-128.42,-194.09,-0.37,0.3,-0.55,-103.64,-6.41,16.91,2025-03-12T10:13:30.653990,0.15773530012653214
367.19,-255.62,894.29,0.3,-1.52,0.3,,,,2025-03-12T10:13:30.686220,974.61,-150.88,-178.71,2.26,-0.3,-1.4,-103.65,-6.39,16.93,2025-03-12T10:13:30.686220,0.18629223126610317
368.41,-255.62,894.53,0.37,-0.98,0.12,-23.49,-14.39,34.58,2025-03-12T10:13:30.738861,968.02,-138.43,-204.1,2.32,-0.49,-2.01,-103.65,-6.37,16.97,2025-03-12T10:13:30.738861,0.21135542245877986
370.12,-252.69,895.02,0.91,-0.06,-0.73,-23.49,-14.38,34.58,2025-03-12T10:13:30.756548,971.92,-137.94,-204.35,-2.2,0.49,-1.95,-103.67,-6.35,16.99,2025-03-12T10:13:30.756548,0.21744780886720977
366.21,-253.42,887.7,1.4,-0.06,-0.91,-23.49,-14.37,34.59,2025-03-12T10:13:30.791319,968.99,-138.18,-201.66,-2.62,0.43,-2.8,-103.69,-6.34,16.97,2025-03-12T10:13:30.791319,0.22412567245627907
369.38,-252.2,897.46,1.16,0.61,-0.85,-23.49,-14.36,34.59,2025-03-12T10:13:30.843913,968.51,-122.07,-198.0,-1.71,0.85,-2.5,-103.69,-6.34,16.98,2025-03-12T10:13:30.843913,0.2199432956099911
369.63,-239.75,897.71,1.28,0.3,-0.67,-23.49,-14.35,34.6,2025-03-12T10:13:30.860536,982.67,-127.2,-205.81,-2.5,1.71,-2.87,-103.7,-6.32,17.01,2025-03-12T10:13:30.860536,0.21034416876978435
366.46,-245.12,883.54,0.67,0.37,-0.49,-23.47,-14.35,34.61,2025-03-12T10:13:30.896177,976.81,-128.17,-211.67,-2.93,2.56,-3.23,-103.7,-6.32,16.98,2025-03-12T10:13:30.896177,0.19151558274019728
370.12,-239.5,902.83,0.43,1.04,-0.91,-23.48,-14.35,34.62,2025-03-12T10:13:30.942701,972.41,-113.28,-204.59,-4.51,3.48,-3.84,-103.7,-6.32,17.0,2025-03-12T10:13:30.942701,0.15687689284143363
365.23,-247.8,894.29,-0.12,0.73,-0.85,-23.48,-14.34,34.62,2025-03-12T10:13:30.965419,974.61,-124.76,-199.46,-5.37,4.76,-3.54,-103.7,-6.32,17.02,2025-03-12T10:13:30.965419,0.11248664812786191
364.5,-254.64,905.03,0.3,1.34,-0.73,-23.47,-14.34,34.62,2025-03-12T10:13:31.088909,982.18,-107.42,-212.89,-4.94,5.91,-3.17,-103.69,-6.31,17.07,2025-03-12T10:13:31.088909,0.050483908397890145
362.79,-256.59,895.51,-0.61,1.77,0.06,-23.47,-14.35,34.63,2025-03-12T10:13:31.090592,991.21,-94.73,-204.35,-6.71,7.13,-2.8,-103.67,-6.33,17.05,2025-03-12T10:13:31.090592,-0.028013293923624033
362.79,-238.53,903.81,-1.65,1.28,0.85,-23.47,-14.36,34.63,2025-03-12T10:13:31.090792,963.13,-90.58,-180.42,-7.87,9.51,-1.95,-103.67,-6.34,17.05,2025-03-12T10:13:31.090792,-0.12531387291573404
353.03,-259.77,896.48,-0.73,0.61,1.28,-23.47,-14.37,34.64,2025-03-12T10:13:31.260275,997.56,-128.91,-106.69,-1.83,6.46,-1.4,-103.65,-6.35,17.09,2025-03-12T10:13:31.260275,-0.1856333616397518
355.22,-250.98,901.37,-1.83,-1.16,1.65,,,,2025-03-12T10:13:31.261872,974.37,-96.92,-99.61,6.59,2.56,-3.84,-103.64,-6.37,17.07,2025-03-12T10:13:31.261872,-0.18902416112670598
362.79,-264.65,894.78,-0.91,-0.67,0.43,-23.46,-14.38,34.65,2025-03-12T10:13:31.262824,983.4,-123.29,-107.67,5.98,-0.98,-2.8,-103.62,-6.37,17.11,2025-03-12T10:13:31.262824,-0.16207025124867483
364.99,-261.72,897.71,-0.24,-0.37,0.0,-23.47,-14.39,34.66,2025-03-12T10:13:31.356911,986.33,-120.85,-140.62,7.62,-4.88,-3.9,-103.62,-6.4,17.09,2025-03-12T10:13:31.356911,-0.09906888432513661
364.5,-252.69,891.36,0.98,0.18,-1.4,-23.48,-14.39,34.67,2025-03-12T10:13:31.358607,972.17,-93.26,-183.35,7.87,-4.7,-3.9,-103.61,-6.4,17.11,2025-03-12T10:13:31.358607,-0.043332376102593245
364.5,-236.33,903.56,-1.28,0.06,-0.55,-23.48,-14.4,34.67,2025-03-12T10:13:31.359278,985.84,-88.13,-211.91,-4.57,-2.68,-2.13,-103.59,-6.4,17.12,2025-03-12T10:13:31.359278,-0.006559864578722097
370.12,-261.23,902.83,-2.62,-2.13,0.37,-23.48,-14.4,34.67,2025-03-12T10:13:31.359753,974.37,-112.55,-191.89,-0.91,-0.49,-2.99,-103.58,-6.4,17.15,2025-03-12T10:13:31.359753,0.030094122040390248
369.87,-260.99,894.78,-0.43,1.22,-0.79,-23.48,-14.4,34.68,2025-03-12T10:13:31.360096,996.83,-107.91,-177.98,-1.83,0.73,-2.62,-103.58,-6.4,17.14,2025-03-12T10:13:31.360096,0.02107242204198692
361.33,-244.14,906.25,-0.49,0.06,-0.73,-23.48,-14.4,34.68,2025-03-12T10:13:31.383962,1006.84,-93.75,-179.93,-5.49,0.61,-2.13,-103.57,-6.4,17.16,2025-03-12T10:13:31.383962,0.02492453959307661
361.08,-254.64,893.55,-2.32,-0.85,-0.43,-23.48,-14.4,34.68,2025-03-12T10:13:31.496417,961.43,-90.82,-184.08,-5.55,3.17,-2.99,-103.56,-6.39,17.19,2025-03-12T10:13:31.496417,0.01226869047216056
367.19,-265.38,892.82,0.18,1.46,-0.67,-23.49,-14.39,34.68,2025-03-12T10:13:31.496639,992.19,-97.9,-161.62,-4.15,2.8,-1.22,-103.55,-6.4,17.19,2025-03-12T10:13:31.496639,-0.019895600837328803
368.41,-254.39,910.4,-0.55,0.73,-0.79,-23.49,-14.39,34.69,2025-03-12T10:13:31.496721,1008.06,-67.63,-222.66,-2.5,2.74,-2.13,-103.54,-6.39,17.21,2025-03-12T10:13:31.496721,-0.044003402293424726
360.6,-245.85,909.67,-2.56,-0.67,0.61,-23.48,-14.39,34.69,2025-03-12T10:13:31.593247,945.07,-81.05,-136.47,-13.35,7.13,-0.55,-103.53,-6.38,17.23,2025-03-12T10:13:31.593247,-0.09813189977069622
353.76,-281.25,899.9,-1.1,0.73,0.49,-23.47,-14.39,34.69,2025-03-12T10:13:31.594232,1003.17,-125.73,-151.37,5.49,5.18,-1.65,-103.5,-6.37,17.25,2025-03-12T10:13:31.594232,-0.1469351833230203
371.34,-262.21,889.4,-1.22,-0.37,-0.55,,,,2025-03-12T10:13:31.594700,984.62,-42.24,-158.69,-6.34,4.82,-1.46,-103.48,-6.37,17.24,2025-03-12T10:13:31.594700,-0.18087684286221112
363.28,-258.06,892.82,-1.59,-0.67,-0.79,-23.47,-14.37,34.71,2025-03-12T10:13:31.659409,967.53,-138.18,-140.38,-2.2,4.94,-1.34,-103.47,-6.37,17.24,2025-03-12T10:13:31.659409,-0.21306820577193264
370.61,-246.34,896.0,-0.49,0.43,-0.06,-23.47,-14.37,34.72,2025-03-12T10:13:31.663316,1017.09,-68.36,-200.44,0.3,4.15,-2.44,-103.44,-6.38,17.25,2025-03-12T10:13:31.663316,-0.2481355607750859
369.38,-251.95,893.8,-1.28,1.28,-0.37,-23.49,-14.37,34.72,2025-03-12T10:13:31.696675,987.79,-62.5,-119.38,-19.15,6.04,0.37,-103.4,-6.4,17.19,2025-03-12T10:13:31.696675,-0.31089510444073465
355.22,-281.49,891.36,-3.48,-0.73,0.24,-23.52,-14.38,34.72,2025-03-12T10:13:31.758861,978.76,-149.9,-78.86,-8.35,2.62,-2.26,-103.37,-6.42,17.07,2025-03-12T10:13:31.758861,-0.3193357896686094
352.29,-283.94,896.0,-0.98,0.79,-3.17,-23.56,-14.39,34.72,2025-03-12T10:13:31.767266,976.81,-51.27,-134.28,-4.94,1.04,-2.56,-103.35,-6.41,17.09,2025-03-12T10:13:31.767266,-0.32688941880289
362.3,-262.7,886.23,-1.52,0.61,-2.99,-23.59,-14.38,34.71,2025-03-12T10:13:31.828254,998.29,-45.9,-142.58,-17.2,1.34,1.46,-103.34,-6.39,16.97,2025-03-12T10:13:31.828254,-0.33608151992814045
371.58,-259.03,889.89,-2.87,-1.46,-1.16,-23.62,-14.37,34.7,2025-03-12T10:13:31.863272,976.81,-25.88,-184.08,4.27,1.77,0.55,-103.34,-6.35,16.92,2025-03-12T10:13:31.863272,-0.32876031546014817
371.83,-261.72,900.15,-3.05,-2.01,0.55,-23.62,-14.34,34.71,2025-03-12T10:13:31.871045,992.92,-70.8,-135.99,-2.26,2.07,4.57,-103.31,-6.27,16.98,2025-03-12T10:13:31.871045,-0.3197809722008118
363.53,-263.43,895.51,-2.56,-2.26,0.43,-23.62,-14.29,34.71,2025-03-12T10:13:31.906160,990.72,-73.73,-134.77,3.05,2.38,4.76,-103.29,-6.17,17.03,2025-03-12T10:13:31.906160,-0.3114714754544868
367.68,-264.4,892.09,-1.77,-2.2,0.73,-23.6,-14.25,34.72,2025-03-12T10:13:31.968478,983.15,-63.48,-107.67,-4.57,0.73,5.43,-103.25,-6.07,17.07,2025-03-12T10:13:31.968478,-0.2873971540461277
362.06,-275.15,888.43,-1.1,-1.83,0.37,-23.58,-14.2,34.73,2025-03-12T10:13:31.976347,985.84,-129.88,-117.68,5.85,-1.83,3.84,-103.18,-5.95,17.13,2025-03-12T10:13:31.976347,-0.2412437016534681
374.02,-268.55,891.6,-0.37,-1.34,-0.3,-23.55,-14.17,34.73,2025-03-12T10:13:32.011374,983.4,-69.58,-140.87,3.66,-1.89,4.33,-103.08,-5.82,17.2,2025-03-12T10:13:32.011374,-0.1992572621896881
366.7,-259.52,894.29,-0.91,-1.83,0.67,,,,2025-03-12T10:13:32.066409,989.26,-102.54,-144.29,4.57,-1.65,3.9,-102.94,-5.67,17.37,2025-03-12T10:13:32.066409,-0.15474551185419627
370.85,-264.16,889.89,-0.85,-1.59,0.85,-23.51,-14.13,34.77,2025-03-12T10:13:32.079896,980.47,-94.73,-165.53,3.17,-0.24,4.39,-102.86,-5.59,17.45,2025-03-12T10:13:32.079896,-0.1268048778005113
365.48,-275.15,892.58,-0.67,-1.52,1.04,-23.46,-14.11,34.79,2025-03-12T10:13:32.115321,985.35,-94.97,-150.88,0.67,0.79,4.02,-102.67,-5.43,17.61,2025-03-12T10:13:32.115321,-0.10990182460980064
367.19,-289.06,896.73,-0.18,-1.65,0.73,-23.38,-14.13,34.79,2025-03-12T10:13:32.171372,993.16,-112.55,-121.34,2.87,0.06,3.05,-102.42,-5.29,17.81,2025-03-12T10:13:32.171372,-0.08430566280795987
368.16,-273.19,894.53,-0.12,-1.16,0.37,-23.33,-14.19,34.79,2025-03-12T10:13:32.184839,991.46,-116.7,-136.96,5.37,-0.3,2.2,-102.12,-5.16,18.05,2025-03-12T10:13:32.184839,-0.05974003558773394
373.78,-274.66,890.14,0.37,-0.61,0.67,-23.28,-14.24,34.76,2025-03-12T10:13:32.220277,986.57,-101.07,-154.05,2.93,0.43,2.8,-101.85,-5.1,18.21,2025-03-12T10:13:32.220277,-0.04804010275096898
377.44,-281.49,888.92,2.07,0.61,-0.18,-23.29,-14.31,34.73,2025-03-12T10:13:32.270131,990.97,-135.99,-134.52,5.91,0.18,1.65,-101.66,-5.05,17.98,2025-03-12T10:13:32.270131,-0.04584674274446071
366.46,-278.08,889.65,3.35,0.61,-0.43,-23.3,-14.33,34.73,2025-03-12T10:13:32.290081,984.13,-105.22,-98.39,7.74,-1.46,2.13,-101.61,-5.0,17.8,2025-03-12T10:13:32.290081,-0.027277718629620418
379.15,-272.46,892.09,3.11,0.18,-0.37,-23.31,-14.34,34.73,2025-03-12T10:13:32.325948,995.36,-131.35,-130.86,12.26,-1.89,1.1,-101.7,-4.96,17.49,2025-03-12T10:13:32.325948,9.014045937560944e-05
365.97,-259.28,898.19,1.71,-0.3,0.18,-23.32,-14.31,34.75,2025-03-12T10:13:32.375745,980.71,-85.45,-161.87,0.12,-0.91,3.17,-101.83,-4.9,17.17,2025-03-12T10:13:32.375745,0.022298775498364898
367.43,-268.31,892.09,1.59,-0.85,0.18,-23.31,-14.3,34.78,2025-03-12T10:13:32.395662,984.62,-133.3,-134.77,8.17,-1.16,1.52,-101.93,-4.8,17.17,2025-03-12T10:13:32.395662,0.05257790640661869
372.07,-268.8,892.82,2.2,-0.73,-0.18,-23.37,-14.38,34.81,2025-03-12T10:13:32.430881,980.47,-137.45,-124.27,10.18,-0.49,1.1,-101.98,-4.7,17.21,2025-03-12T10:13:32.430881,0.07504571261193538
365.72,-271.48,898.93,1.77,-1.34,-0.24,-23.35,-14.41,34.83,2025-03-12T10:13:32.477456,981.45,-132.08,-144.29,6.22,-0.18,0.12,-101.96,-4.6,17.26,2025-03-12T10:13:32.477456,0.10053691490512984
375.24,-263.67,898.44,2.38,-0.67,0.12,-23.52,-14.08,36.46,2025-03-12T10:13:32.500776,965.33,-130.13,-140.14,2.5,-0.98,-0.18,-101.91,-4.5,17.41,2025-03-12T10:13:32.500776,0.12740353382627262
360.84,-263.18,898.93,1.65,-1.34,-0.24,,,,2025-03-12T10:13:32.532555,983.15,-132.57,-102.29,-3.05,-2.38,-1.04,-101.82,-4.38,17.51,2025-03-12T10:13:32.532555,0.17496561674647604
375.24,-255.86,894.29,1.28,-1.22,-0.85,-23.31,-14.48,34.92,2025-03-12T10:13:32.582099,996.34,-154.79,-123.54,3.66,-2.38,-2.13,-101.72,-4.28,17.71,2025-03-12T10:13:32.582099,0.22149640855335373
363.53,-261.23,894.78,1.46,-0.79,-1.04,-23.28,-14.47,34.95,2025-03-12T10:13:32.602846,986.33,-104.0,-134.52,-4.15,-2.68,-1.59,-101.62,-4.19,17.74,2025-03-12T10:13:32.602846,0.26666718737377626
380.86,-252.93,896.24,0.79,-1.59,-0.49,-23.29,-14.55,34.97,2025-03-12T10:13:32.637994,987.3,-129.88,-142.09,1.46,-1.77,-2.13,-101.4,-4.09,18.13,2025-03-12T10:13:32.637994,0.31083630201303414
369.63,-277.34,891.85,0.37,-1.77,-0.91,-23.26,-14.6,34.97,2025-03-12T10:13:32.675715,976.07,-103.27,-142.58,-3.29,-2.2,-2.5,-101.22,-4.08,18.17,2025-03-12T10:13:32.675715,0.36097015093104323
372.07,-251.22,891.11,0.12,-2.44,-0.37,-23.26,-14.63,34.99,2025-03-12T10:13:32.710899,985.6,-124.02,-132.57,-2.5,-0.98,-1.46,-101.05,-4.0,18.18,2025-03-12T10:13:32.710899,0.4056886518091472
369.14,-263.92,885.74,0.18,-1.34,-0.67,-23.27,-14.66,35.02,2025-03-12T10:13:32.743428,976.56,-118.65,-130.62,-0.98,-2.26,-2.68,-100.85,-3.96,18.41,2025-03-12T10:13:32.743428,0.45220608926279404
374.27,-257.81,896.24,0.55,-1.04,-1.04,-23.24,-14.67,35.02,2025-03-12T10:13:32.779800,988.04,-115.72,-128.91,-4.45,-2.2,-1.46,-100.68,-3.9,18.3,2025-03-12T10:13:32.779800,0.4951470971611399
381.59,-263.92,894.53,1.16,-1.34,-1.16,-23.21,-14.74,35.05,2025-03-12T10:13:32.818967,999.27,-121.58,-138.92,-3.35,-2.68,-2.26,-100.48,-3.8,18.79,2025-03-12T10:13:32.818967,0.5459459369096693
377.93,-246.09,897.22,0.43,-0.49,-1.16,-23.23,-14.86,35.08,2025-03-12T10:13:32.896582,990.23,-130.86,-157.96,-3.78,-2.56,-2.62,-100.34,-3.69,19.22,2025-03-12T10:13:32.896582,0.5871661523796156
373.54,-264.16,889.65,1.16,0.61,-1.16,-23.24,-14.88,35.18,2025-03-12T10:13:32.897330,969.73,-89.36,-160.4,-8.29,-2.56,-3.23,-100.29,-3.57,19.36,2025-03-12T10:13:32.897330,0.6173612017653025
373.54,-252.44,896.73,1.52,1.4,-0.61,-23.21,-14.86,35.31,2025-03-12T10:13:32.918487,996.83,-146.24,-145.51,-5.79,-2.44,-3.17,-100.26,-3.49,19.92,2025-03-12T10:13:32.918487,0.6384928591934665
373.54,-255.37,886.23,2.44,1.59,-0.91,-22.26,-16.89,25.01,2025-03-12T10:13:32.988133,977.78,-105.47,-151.37,-0.61,-3.23,-4.82,-100.22,-3.5,19.92,2025-03-12T10:13:32.988133,0.6658315165722061
375.0,-253.42,893.07,2.2,1.95,-0.85,,,,2025-03-12T10:13:32.988962,974.85,-109.13,-149.66,-1.04,-2.68,-5.0,-100.14,-3.64,19.97,2025-03-12T10:13:32.988962,0.6841043471383861
367.19,-250.49,902.1,2.44,1.89,-0.85,-23.4,-15.12,35.46,2025-03-12T10:13:33.021773,976.32,-97.17,-152.59,0.12,-2.32,-5.3,-100.04,-3.81,19.93,2025-03-12T10:13:33.021773,0.699401448975946
376.71,-255.62,891.11,2.38,1.28,0.43,-23.46,-15.2,35.46,2025-03-12T10:13:33.093290,988.04,-101.81,-160.89,2.8,-3.11,-7.2,-99.99,-3.98,20.05,2025-03-12T10:13:33.093290,0.7288291908718864
376.95,-245.12,898.44,2.44,1.1,-0.3,-23.52,-15.26,35.47,2025-03-12T10:13:33.094101,985.35,-80.08,-164.55,2.13,-0.85,-7.07,-100.0,-4.17,20.03,2025-03-12T10:13:33.094101,0.7375167915472818
362.3,-260.25,895.26,3.17,1.65,0.18,-23.56,-15.27,35.47,2025-03-12T10:13:33.125719,989.01,-121.09,-152.59,0.12,-1.77,-8.35,-100.04,-4.35,19.83,2025-03-12T10:13:33.125719,0.7498151767951247
374.27,-251.22,910.4,3.6,0.67,-0.67,-23.61,-15.31,35.46,2025-03-12T10:13:33.195883,986.33,-87.4,-161.87,0.49,-1.77,-9.82,-100.07,-4.53,19.76,2025-03-12T10:13:33.195883,0.7721970813523428
365.72,-236.57,895.75,4.45,-1.28,-0.79,-23.65,-15.35,35.44,2025-03-12T10:13:33.196776,997.31,-88.62,-156.49,-3.35,-0.67,-10.3,-100.08,-4.7,19.63,2025-03-12T10:13:33.196776,0.803200707676618
368.9,-238.28,911.38,5.18,-2.26,-1.4,-23.69,-15.38,35.42,2025-03-12T10:13:33.230983,998.05,-80.08,-146.48,-12.56,-3.66,-11.52,-100.04,-4.86,19.62,2025-03-12T10:13:33.230983,0.8741827328649046
382.32,-264.16,908.45,6.1,-4.94,-3.35,-23.72,-15.39,35.4,2025-03-12T10:13:33.295815,1006.59,-91.55,-128.66,-15.85,-4.63,-11.71,-100.0,-5.0,19.51,2025-03-12T10:13:33.295815,0.9818534311689325
376.71,-254.39,909.91,5.06,-9.33,-6.04,-23.74,-15.41,35.38,2025-03-12T10:13:33.300862,991.46,-58.59,-119.38,-20.0,-5.79,-11.71,-99.98,-5.12,19.39,2025-03-12T10:13:33.300862,1.1453761523686354
398.44,-242.19,923.1,6.46,-9.02,-8.41,-23.76,-15.41,35.35,2025-03-12T10:13:33.336112,1033.94,-76.42,-162.6,-15.24,-8.17,-13.17,-99.95,-5.25,19.24,2025-03-12T10:13:33.336112,1.3302794084370388
400.88,-250.0,901.37,8.6,-6.4,-9.27,-23.74,-15.37,35.32,2025-03-12T10:13:33.401160,979.74,-19.04,-206.05,-5.61,-7.38,-12.87,-99.91,-5.35,19.07,2025-03-12T10:13:33.401160,1.4810913257604235
399.9,-213.38,927.73,4.27,-7.87,-6.16,-23.7,-15.26,35.29,2025-03-12T10:13:33.405701,981.69,-10.74,-250.98,0.18,-3.41,-12.01,-99.9,-5.47,18.87,2025-03-12T10:13:33.405701,1.6069958351130036
559.81,-64.94,1049.07,8.35,-6.28,-0.43,2.21,-25.67,58.61,2025-03-12T10:13:33.443181,979.74,19.04,-210.69,4.39,-5.06,-12.62,-99.93,-5.6,18.45,2025-03-12T10:13:33.443181,1.7344981325610218
455.08,-231.45,914.31,2.2,-4.02,5.79,-23.64,-15.07,35.22,2025-03-12T10:13:33.502051,991.94,-15.87,-201.42,0.49,-2.8,-8.41,-99.94,-5.72,18.39,2025-03-12T10:13:33.502051,1.8155826608744043
537.11,-87.65,820.56,9.7,-6.77,2.87,-23.65,-15.02,35.19,2025-03-12T10:13:33.510831,949.95,-34.18,-238.04,10.37,-8.05,-9.51,-99.93,-5.84,18.17,2025-03-12T10:13:33.510831,1.9772498551037327
552.0,-126.22,781.25,15.43,-9.21,0.85,-23.66,-14.95,35.17,2025-03-12T10:13:33.545651,918.95,41.99,-268.31,13.35,-18.54,-9.33,-99.91,-5.94,17.84,2025-03-12T10:13:33.545651,2.267767771958723
541.99,-130.86,819.09,16.46,-13.41,1.34,-23.69,-14.89,35.14,2025-03-12T10:13:33.603235,946.04,18.8,-286.38,-1.22,-28.17,-9.51,-99.89,-6.01,17.6,2025-03-12T10:13:33.603235,2.696557660787521
536.87,-100.83,866.94,18.66,-15.0,-0.43,-23.7,-14.82,35.1,2025-03-12T10:13:33.614893,930.18,27.34,-292.97,2.62,-35.18,-9.39,-99.86,-6.03,17.46,2025-03-12T10:13:33.614893,3.211131040965135
526.12,-112.79,865.48,21.34,-12.56,-4.57,-23.73,-14.77,35.1,2025-03-12T10:13:33.650721,968.75,2.2,-306.64,1.4,-44.82,-7.5,-99.89,-6.0,17.54,2025-03-12T10:13:33.650721,3.7965186558640664
564.45,-95.95,892.58,19.21,-12.5,-14.82,-23.76,-14.71,35.1,2025-03-12T10:13:33.709477,980.22,65.92,-336.43,-11.83,-56.46,-9.27,-99.94,-5.95,17.4,2025-03-12T10:13:33.709477,4.495662435828823
663.33,-109.86,838.13,24.45,-20.61,-19.39,-23.79,-14.67,35.11,2025-03-12T10:13:33.722627,955.81,-48.34,-358.4,-19.09,-61.83,-8.48,-100.02,-5.88,17.53,2025-03-12T10:13:33.722627,5.327860502018469
716.8,-133.06,773.68,26.4,-39.33,-17.07,-23.84,-14.64,35.13,2025-03-12T10:13:33.767658,966.55,-9.52,-418.46,-22.01,-80.61,-10.12,-100.08,-5.81,17.45,2025-03-12T10:13:33.767658,6.535325497104616
781.25,-8.06,803.71,27.44,-71.89,-20.24,-23.9,-14.61,35.15,2025-03-12T10:13:33.813133,907.96,56.88,-472.41,7.01,-98.84,-11.28,-100.13,-5.73,17.57,2025-03-12T10:13:33.813133,8.24890951715821
697.51,2.69,957.28,30.3,-79.7,-29.57,-23.97,-14.6,35.16,2025-03-12T10:13:33.826401,928.47,73.49,-544.43,-2.8,-110.79,-8.54,-100.16,-5.66,17.59,2025-03-12T10:13:33.826401,10.154250593021382
569.58,21.48,961.67,35.18,-79.39,-31.16,-24.01,-14.58,35.18,2025-03-12T10:13:33.861659,874.02,87.89,-570.56,8.66,-111.83,-11.59,-100.21,-5.58,17.65,2025-03-12T10:13:33.861659,12.064786379013974
577.15,-39.55,922.61,39.33,-76.28,-22.38,-24.05,-14.55,35.2,2025-03-12T10:13:33.912279,871.83,95.95,-654.79,13.41,-105.91,-16.22,-100.3,-5.5,17.79,2025-03-12T10:13:33.912279,13.888057971580416
677.73,71.53,875.24,40.06,-75.18,-32.07,-24.09,-14.51,35.23,2025-03-12T10:13:33.933081,742.68,103.76,-633.3,2.13,-99.21,-20.49,-100.36,-5.4,17.91,2025-03-12T10:13:33.933081,15.62608616077302
652.59,25.88,829.1,32.99,-67.38,-43.48,-24.1,-14.48,35.26,2025-03-12T10:13:33.966090,740.48,116.46,-688.72,-6.65,-92.93,-12.5,-100.46,-5.28,18.02,2025-03-12T10:13:33.966090,17.211488875440608
667.97,1.46,761.23,25.43,-66.22,-45.79,-24.06,-14.43,35.27,2025-03-12T10:13:34.016167,730.71,99.37,-703.12,-20.55,-88.54,-5.98,-100.55,-5.14,18.33,2025-03-12T10:13:34.016167,18.735557782695928
729.74,33.69,744.14,20.79,-70.85,-45.67,-24.0,-14.37,35.26,2025-03-12T10:13:34.035958,719.48,63.72,-730.96,-18.96,-86.1,-3.35,-100.64,-4.99,18.43,2025-03-12T10:13:34.035958,20.278334057490078
786.38,23.19,714.6,18.72,-75.24,-41.71,-23.93,-14.28,35.25,2025-03-12T10:13:34.071285,710.94,47.61,-801.76,-18.23,-84.57,0.24,-100.73,-4.84,18.43,2025-03-12T10:13:34.071285,21.849493159254145
937.5,88.13,681.88,15.85,-88.66,-40.55,-23.85,-14.2,35.25,2025-03-12T10:13:34.117784,684.33,62.01,-815.92,-8.78,-90.37,0.98,-100.81,-4.66,18.42,2025-03-12T10:13:34.117784,23.61091076134639
947.51,151.37,702.39,11.77,-92.93,-49.27,-23.77,-14.13,35.21,2025-03-12T10:13:34.140905,660.16,101.81,-854.25,-11.83,-98.9,3.96,-100.88,-4.49,18.34,2025-03-12T10:13:34.140905,25.488944561669204
831.3,204.59,677.73,14.39,-87.74,-58.78,-23.71,-14.05,35.18,2025-03-12T10:13:34.216649,555.66,128.42,-866.7,-30.06,-97.56,4.51,-100.95,-4.28,18.18,2025-03-12T10:13:34.216649,27.289570395478982
854.49,65.19,599.85,21.95,-90.3,-45.12,-23.64,-13.96,35.14,2025-03-12T10:13:34.217525,529.79,66.41,-858.64,-34.45,-91.83,-0.12,-100.98,-4.03,18.13,2025-03-12T10:13:34.217525,29.07042505332178
812.26,194.58,526.12,15.61,-92.32,-42.5,-23.57,-13.86,35.08,2025-03-12T10:13:34.248088,457.76,187.01,-847.9,-9.15,-94.45,-1.59,-101.0,-3.76,18.0,2025-03-12T10:13:34.248088,30.897732822196883
643.55,152.34,569.82,3.05,-68.35,-44.76,-23.55,-13.74,35.05,2025-03-12T10:13:34.322382,352.54,213.13,-847.66,-21.22,-82.44,9.51,-101.05,-3.42,18.0,2025-03-12T10:13:34.322382,32.35671917088213
681.4,112.06,483.64,5.73,-60.3,-23.66,-23.56,-13.57,35.0,2025-03-12T10:13:34.323260,378.91,65.43,-853.27,-31.4,-62.8,6.59,-101.08,-3.03,18.08,2025-03-12T10:13:34.323260,33.563451702530514
774.9,235.11,431.88,9.02,-59.45,-6.89,-23.63,-13.38,34.97,2025-03-12T10:13:34.352301,334.23,67.38,-892.82,7.44,-56.83,-3.6,-101.2,-2.55,18.48,2025-03-12T10:13:34.352301,34.72632170148394
886.47,196.04,381.59,13.54,-51.34,-5.67,-23.86,-13.16,35.04,2025-03-12T10:13:34.422352,301.27,149.41,-926.51,9.88,-54.76,-2.07,-101.39,-2.06,18.96,2025-03-12T10:13:34.422352,35.78828417844927
881.35,265.62,320.56,12.13,-54.33,0.73,-24.16,-12.94,35.19,2025-03-12T10:13:34.423015,291.02,118.41,-955.81,3.84,-52.01,-2.2,-101.58,-1.51,19.57,2025-03-12T10:13:34.423015,36.85989734253228
811.77,309.08,318.85,11.59,-47.87,-0.98,-24.49,-12.59,35.37,2025-03-12T10:13:34.556302,234.13,124.02,-906.98,8.6,-47.99,-5.18,-101.83,-0.98,19.9,2025-03-12T10:13:34.556302,37.82643593912945
656.49,310.3,364.5,10.73,-27.56,-9.09,-24.77,-12.23,35.54,2025-03-12T10:13:34.557194,190.43,187.01,-840.82,-3.96,-37.5,-4.09,-102.04,-0.51,20.01,2025-03-12T10:13:34.557194,38.47535651602561
473.39,220.7,328.12,16.89,-4.21,4.39,-25.1,-12.01,35.63,2025-03-12T10:13:34.557878,168.46,155.76,-707.76,-10.3,-15.85,-12.38,-102.18,-0.1,19.83,2025-03-12T10:13:34.557878,38.6980626712742
226.07,76.9,376.95,19.7,26.71,33.17,-25.31,-11.87,35.52,2025-03-12T10:13:34.563098,143.8,65.92,-607.91,1.34,14.39,-18.29,-102.34,0.27,19.59,2025-03-12T10:13:34.563098,38.35376749712286
67.87,-90.09,583.98,17.26,80.79,61.22,-25.47,-11.84,35.27,2025-03-12T10:13:34.630869,291.26,36.87,-485.6,30.79,52.38,-21.89,-102.47,0.54,19.45,2025-03-12T10:13:34.630869,37.12372094935133
-250.98,-85.94,677.49,-7.74,140.73,67.99,-25.72,-11.48,35.08,2025-03-12T10:13:34.631811,358.15,162.6,-411.62,51.22,114.02,-16.28,-102.88,0.75,18.92,2025-03-12T10:13:34.631811,34.68306319901575
-312.99,-291.5,940.43,-24.09,222.38,97.74,-26.08,-10.93,34.77,2025-03-12T10:13:34.668716,395.75,136.96,-314.7,18.6,194.88,-13.17,-103.64,1.01,18.57,2025-03-12T10:13:34.668716,30.65184260243719
-351.07,-467.04,1191.41,-38.05,295.55,136.22,-26.59,-10.36,34.48,2025-03-12T10:13:34.734295,507.32,17.33,-402.1,31.77,280.67,-12.07,-104.71,1.32,18.45,2025-03-12T10:13:34.734295,25.064620568098164
66.65,-1000.73,2147.46,-67.07,380.43,179.15,-27.06,-9.72,34.22,2025-03-12T10:13:34.737989,609.38,-90.82,-662.11,72.62,378.29,5.24,-106.06,1.59,18.31,2025-03-12T10:13:34.737989,17.67215585468114
1010.99,-1677.98,3141.11,-112.5,452.44,227.62,-27.52,-8.97,34.12,2025-03-12T10:13:34.776011,1280.27,-5.62,-1165.53,144.39,481.52,7.74,-107.77,1.76,18.12,2025-03-12T10:13:34.776011,8.530208780958192
3999.88,3999.88,-4000.0,-312.56,369.94,233.35,-28.06,-8.01,34.29,2025-03-12T10:13:34.832418,3129.39,243.16,-469.48,-2.2,518.66,44.76,-109.76,2.33,18.7,2025-03-12T10:13:34.832418,-0.24551519536298705
-52.0,-1677.73,1775.63,22.38,29.27,-85.18,-28.99,-6.96,34.45,2025-03-12T10:13:34.845821,-264.89,176.03,-1512.94,-158.9,-15.43,67.26,-112.04,2.68,18.94,2025-03-12T10:13:34.845821,-0.3988072512912524
750.24,-1065.19,369.14,-38.96,35.49,-12.5,-30.81,-5.83,34.49,2025-03-12T10:13:34.893858,1578.37,-1427.0,-828.61,-119.02,-8.11,28.29,-116.73,3.38,19.12,2025-03-12T10:13:34.893858,-0.6735786155441432
351.32,-14.89,949.71,10.79,13.72,-12.87,-33.41,-4.57,34.64,2025-03-12T10:13:34.937196,561.04,-129.88,-421.14,41.22,35.79,7.38,-120.57,3.61,18.88,2025-03-12T10:13:34.937196,-1.160514145633287
335.94,-233.64,914.06,-7.13,-5.67,8.6,-36.21,-3.05,34.9,2025-03-12T10:13:34.952993,729.49,195.31,-41.26,-2.99,21.04,19.7,-124.48,3.81,18.49,2025-03-12T10:13:34.952993,-1.309004928200255
361.82,-320.56,787.84,-2.93,-6.59,4.33,-38.9,-1.39,34.9,2025-03-12T10:13:34.986177,849.85,-197.02,101.32,-63.84,25.91,18.48,-128.22,3.95,17.78,2025-03-12T10:13:34.986177,-1.498341548215965
371.83,-331.3,820.31,2.26,-2.62,1.65,-41.58,0.15,34.68,2025-03-12T10:13:35.037190,1194.09,-394.29,50.78,64.45,-12.38,3.35,-131.75,4.47,17.31,2025-03-12T10:13:35.037190,-1.3396622161440255
382.32,-221.92,907.23,5.67,-2.01,-3.41,-44.07,1.96,34.69,2025-03-12T10:13:35.056345,917.24,141.85,-253.42,81.4,1.71,-5.73,-135.09,4.86,16.97,2025-03-12T10:13:35.056345,-1.3248728845896935
376.71,-203.86,870.36,-2.62,-1.95,-4.33,-46.31,3.82,35.03,2025-03-12T10:13:35.090989,950.44,-80.08,-228.52,-20.0,-3.05,5.37,-138.19,5.53,17.22,2025-03-12T10:13:35.090989,-1.2653083866671768
376.95,-214.6,903.81,2.62,-2.26,-2.13,-48.59,5.53,35.49,2025-03-12T10:13:35.143619,1001.22,-110.11,-163.33,-16.95,1.34,5.37,-141.12,6.17,17.6,2025-03-12T10:13:35.143619,-1.2466219010293953
394.78,-223.88,894.29,2.68,-0.12,-3.54,-50.96,7.11,35.97,2025-03-12T10:13:35.162004,978.52,-58.59,-185.3,-12.38,0.24,2.5,-144.01,6.64,17.96,2025-03-12T10:13:35.162004,-1.2378936844353186
376.22,-223.63,899.41,0.24,-0.12,-2.62,-53.63,8.59,36.34,2025-03-12T10:13:35.196815,955.57,-84.23,-149.9,-8.11,-2.2,2.74,-147.01,6.95,18.24,2025-03-12T10:13:35.196815,-1.2048807075533168
388.67,-233.15,888.92,-0.18,-0.37,-2.2,-56.71,10.16,36.78,2025-03-12T10:13:35.242576,989.75,-101.81,-217.77,12.44,-3.6,0.18,-150.34,7.14,18.52,2025-03-12T10:13:35.242576,-1.154718287789497
387.7,-230.22,888.18,1.1,-1.52,-1.16,-59.78,11.88,37.38,2025-03-12T10:13:35.273659,945.56,-24.9,-218.99,17.56,-6.1,-1.16,-153.65,7.91,19.1,2025-03-12T10:13:35.273659,-1.067639921394147
387.21,-221.44,910.16,0.79,-1.1,-2.26,-62.63,13.86,37.89,2025-03-12T10:13:35.302316,1010.74,-36.38,-282.71,9.82,-1.89,0.98,-156.79,8.93,19.67,2025-03-12T10:13:35.302316,-1.0273438067532186
392.09,-213.62,896.48,-1.1,-1.1,-0.49,-65.77,15.46,37.87,2025-03-12T10:13:35.351516,976.56,-20.75,-233.89,-4.57,2.07,0.49,-159.97,9.49,19.81,2025-03-12T10:13:35.351516,-1.0263563262032405
391.6,-229.0,906.98,-2.26,-1.28,0.43,-68.71,17.05,38.12,2025-03-12T10:13:35.375207,995.36,-94.73,-198.24,-8.54,4.27,1.28,-162.9,9.95,20.21,2025-03-12T10:13:35.375207,-1.0457664489354452
382.57,-229.0,898.19,-1.16,-0.67,-0.18,-70.87,18.46,38.55,2025-03-12T10:13:35.443197,975.83,-85.45,-166.75,-5.61,1.65,0.55,-165.07,10.95,20.83,2025-03-12T10:13:35.443197,-1.0450014629241389
385.99,-224.37,901.37,-0.85,-0.18,-0.79,-73.03,19.09,38.5,2025-03-12T10:13:35.445539,963.87,-82.52,-166.75,-4.57,-0.3,0.55,-167.03,11.03,20.81,2025-03-12T10:13:35.445539,-1.029650037930127
381.84,-223.39,890.87,0.3,-0.37,-0.67,-75.0,19.48,38.25,2025-03-12T10:13:35.477086,974.61,-91.31,-176.27,2.68,-3.05,-1.28,-168.99,10.62,20.66,2025-03-12T10:13:35.477086,-0.9844921135754994
384.03,-232.91,902.83,1.1,-0.55,-1.28,-76.93,19.63,37.83,2025-03-12T10:13:35.554626,980.47,-53.22,-239.01,8.29,-1.22,-0.61,-170.82,10.48,20.56,2025-03-12T10:13:35.554626,-0.9560522104565687
391.85,-233.4,894.78,1.04,-0.91,-1.65,-78.86,19.63,37.4,2025-03-12T10:13:35.555389,974.12,-57.13,-188.48,-4.09,-1.46,0.12,-172.54,10.24,20.39,2025-03-12T10:13:35.555389,-0.9217806984824368
376.46,-214.6,898.19,1.28,0.12,-1.95,-80.46,19.88,37.05,2025-03-12T10:13:35.581207,990.23,-63.48,-206.3,-4.02,-0.37,1.16,-174.0,10.2,20.24,2025-03-12T10:13:35.581207,-0.9089115200604483
393.55,-222.41,898.68,0.61,-0.43,-1.28,-81.34,20.16,36.62,2025-03-12T10:13:35.652143,961.91,-53.96,-175.29,-9.82,-2.5,0.43,-174.81,10.63,19.91,2025-03-12T10:13:35.652143,-0.8690391483171538
356.2,-242.68,891.6,0.43,-0.24,-1.1,-81.5,19.91,35.91,2025-03-12T10:13:35.652867,988.53,-80.08,-184.81,-4.21,-5.12,1.95,-174.71,10.78,19.34,2025-03-12T10:13:35.652867,-0.8054775114459316
393.8,-213.38,887.45,1.04,-0.98,-1.16,-80.5,18.62,34.96,2025-03-12T10:13:35.686076,963.38,-37.11,-249.27,12.44,-4.33,-0.43,-173.39,10.06,18.48,2025-03-12T10:13:35.686076,-0.7415526599237585
387.94,-216.55,895.26,0.0,-0.67,-0.12,-77.43,16.45,34.18,2025-03-12T10:13:35.757058,970.95,-38.33,-218.99,-2.8,-1.71,3.72,-170.2,8.44,17.61,2025-03-12T10:13:35.757058,-0.7078426416308121
389.4,-229.98,894.53,-1.04,-1.28,0.55,-71.59,13.8,33.94,2025-03-12T10:13:35.757817,983.64,-56.88,-212.16,4.02,-2.8,2.87,-164.23,7.59,16.97,2025-03-12T10:13:35.757817,-0.656959932942113
383.3,-220.7,893.8,-0.98,-0.06,0.85,-63.05,9.89,33.4,2025-03-12T10:13:35.790929,960.21,-38.82,-195.8,1.71,-0.85,5.49,-155.26,6.94,16.25,2025-03-12T10:13:35.790929,-0.6382950922389223
385.74,-241.7,883.79,-2.38,-1.46,1.83,-52.21,4.68,32.0,2025-03-12T10:13:35.860355,978.76,-95.46,-193.36,6.95,-3.66,4.76,-143.03,5.06,15.14,2025-03-12T10:13:35.860355,-0.5774036414224504
391.36,-220.95,902.34,-0.73,-1.1,1.16,-38.22,-1.91,29.22,2025-03-12T10:13:35.861864,955.32,-78.86,-196.53,4.76,-3.54,5.98,-127.26,1.7,12.2,2025-03-12T10:13:35.861864,-0.5214324230066676
391.85,-223.63,896.97,0.0,0.43,1.59,-22.28,-10.24,24.54,2025-03-12T10:13:35.896584,970.46,-95.7,-198.24,7.26,-4.51,5.61,-108.94,-0.27,11.28,2025-03-12T10:13:35.896584,-0.4709251149531364
399.41,-204.83,903.56,0.24,0.73,1.89,-11.43,-3.59,18.55,2025-03-12T10:13:35.959910,986.33,-72.27,-231.93,13.72,-3.72,5.55,-106.16,1.17,6.69,2025-03-12T10:13:35.959910,-0.43106354880361963
396.97,-231.2,891.36,-1.46,1.16,2.87,-11.01,-4.01,19.44,2025-03-12T10:13:35.965019,969.97,-97.66,-224.37,7.93,-5.43,5.85,-104.82,-0.44,12.65,2025-03-12T10:13:35.965019,-0.37844348131925853
375.24,-228.27,899.41,-0.98,0.49,2.44,-10.43,-4.62,19.78,2025-03-12T10:13:36.000945,959.23,-117.19,-170.65,11.59,-3.96,5.24,-104.35,0.22,15.72,2025-03-12T10:13:36.000945,-0.33372330212218015
393.31,-248.54,899.66,0.49,2.74,1.59,-10.37,-4.4,19.97,2025-03-12T10:13:36.063487,977.78,-133.3,-246.83,9.33,-6.28,3.29,-104.04,-1.68,11.69,2025-03-12T10:13:36.063487,-0.2880690049155912
379.15,-227.05,900.15,1.46,2.2,-0.61,-10.61,-4.77,19.78,2025-03-12T10:13:36.071178,968.51,-96.44,-210.21,1.83,-4.39,4.88,-103.09,-1.98,12.84,2025-03-12T10:13:36.071178,-0.25609428674500334
390.62,-230.96,894.29,0.98,1.46,-0.18,-10.81,-5.14,19.68,2025-03-12T10:13:36.106268,979.25,-125.73,-247.31,3.6,-4.27,2.44,-102.74,-2.35,14.27,2025-03-12T10:13:36.106268,-0.2176040708620366
374.27,-239.5,897.46,1.52,1.34,-1.22,-10.87,-5.03,19.63,2025-03-12T10:13:36.164755,953.12,-92.04,-218.99,-1.34,-3.11,4.63,-102.9,-3.1,11.32,2025-03-12T10:13:36.164755,-0.18988748130747424
395.75,-233.4,895.51,-0.91,0.43,-0.67,-11.06,-4.85,19.71,2025-03-12T10:13:36.176295,987.3,-145.51,-271.48,7.93,-1.4,1.22,-102.92,-3.2,9.96,2025-03-12T10:13:36.176295,-0.16969034126050042
375.49,-220.7,902.1,-3.54,1.16,-1.04,-11.22,-4.92,19.85,2025-03-12T10:13:36.217946,955.81,-88.13,-251.71,-3.84,0.98,3.96,-103.08,-3.23,10.63,2025-03-12T10:13:36.217946,-0.180841020756777
380.62,-230.47,895.26,-1.95,0.3,-0.06,-11.35,-4.87,19.92,2025-03-12T10:13:36.265724,962.89,-133.79,-252.2,4.88,1.1,1.52,-103.04,-3.26,11.14,2025-03-12T10:13:36.265724,-0.18434941686797135
372.07,-232.42,894.29,-2.62,0.3,-0.43,-11.44,-4.85,20.03,2025-03-12T10:13:36.280895,979.0,-102.29,-289.79,3.35,7.44,2.56,-103.09,-3.24,11.58,2025-03-12T10:13:36.280895,-0.2513703359432329
395.02,-229.98,894.53,-3.54,-0.06,0.0,-11.53,-4.9,20.12,2025-03-12T10:13:36.315467,985.84,-123.29,-346.92,-2.56,13.23,1.77,-103.22,-3.33,11.66,2025-03-12T10:13:36.315467,-0.3725254562689646
370.61,-225.34,900.15,-5.3,-0.98,1.16,-11.65,-4.93,20.19,2025-03-12T10:13:36.367924,959.96,-85.45,-223.88,-7.26,14.94,5.12,-103.36,-3.47,11.06,2025-03-12T10:13:36.367924,-0.5019277637277855
391.85,-239.01,894.53,-5.91,-2.07,1.89,-11.8,-4.94,20.23,2025-03-12T10:13:36.385842,987.55,-169.92,-229.0,9.76,15.37,0.73,-103.52,-3.54,10.58,2025-03-12T10:13:36.385842,-0.6243349677013179
380.62,-247.56,895.02,-4.02,-0.98,1.22,-11.92,-4.97,20.31,2025-03-12T10:13:36.421131,933.35,-138.43,-108.4,-0.79,8.96,1.34,-103.51,-3.62,10.31,2025-03-12T10:13:36.421131,-0.6936741831116635
372.56,-260.74,893.8,-0.18,-0.61,-1.22,-12.05,-5.08,20.33,2025-03-12T10:13:36.473728,1005.62,-198.0,-94.97,10.73,4.09,-2.07,-103.45,-3.58,10.6,2025-03-12T10:13:36.473728,-0.717871749405141
375.49,-228.52,899.41,-0.3,-0.79,-1.34,-12.17,-5.22,20.34,2025-03-12T10:13:36.492034,972.17,-109.13,-158.69,5.67,1.95,-1.65,-103.31,-3.58,10.86,2025-03-12T10:13:36.492034,-0.7186753855008181
376.71,-251.46,897.95,0.3,-0.12,-1.28,-12.27,-5.31,20.37,2025-03-12T10:13:36.525603,969.73,-119.14,-176.03,-4.39,1.4,-1.65,-103.25,-3.55,11.05,2025-03-12T10:13:36.525603,-0.7208043241917041
387.7,-242.19,892.58,2.32,0.06,-0.79,,,,2025-03-12T10:13:36.576104,960.45,-121.83,-151.86,-7.8,0.0,-1.46,-105.53,-31.39,-10.17,2025-03-12T10:13:36.576104,-0.7106514928664103
378.91,-245.36,891.85,2.56,-0.06,-0.12,-12.47,-5.42,20.44,2025-03-12T10:13:36.592854,969.97,-165.28,-174.8,-0.55,-2.32,-2.93,-103.3,-3.53,11.11,2025-03-12T10:13:36.592854,-0.6760360526852736
385.74,-236.82,897.95,2.44,0.06,-0.18,-12.57,-5.43,20.49,2025-03-12T10:13:36.627715,974.61,-96.19,-233.89,0.91,-0.43,-2.32,-103.36,-3.56,10.82,2025-03-12T10:13:36.627715,-0.6614586735189274
384.28,-234.62,895.51,1.1,0.0,0.61,-12.68,-5.44,20.55,2025-03-12T10:13:36.677896,968.51,-115.97,-211.18,-4.15,0.98,-2.2,-103.41,-3.54,10.87,2025-03-12T10:13:36.677896,-0.6603805249086798
378.42,-239.99,900.39,0.73,0.37,0.18,-12.77,-5.45,20.61,2025-03-12T10:13:36.699876,982.18,-119.63,-165.04,-5.18,0.98,-2.2,-103.44,-3.53,11.02,2025-03-12T10:13:36.699876,-0.6630385032166493
391.6,-241.7,891.6,-0.06,0.43,-0.06,-12.87,-5.5,20.66,2025-03-12T10:13:36.732903,992.43,-136.72,-209.72,-1.28,0.24,-2.93,-103.5,-3.48,11.28,2025-03-12T10:13:36.732903,-0.6587944077470713
385.01,-237.55,894.78,-0.24,0.55,-0.43,-12.96,-5.52,20.7,2025-03-12T10:13:36.780801,974.37,-94.48,-197.27,-7.07,1.71,-2.68,-103.66,-3.47,11.58,2025-03-12T10:13:36.780801,-0.6704328166199713
362.06,-234.86,892.09,0.91,0.55,-0.12,-13.07,-5.54,20.73,2025-03-12T10:13:36.827725,968.51,-138.92,-156.25,-2.44,-0.49,-2.62,-103.78,-3.57,11.24,2025-03-12T10:13:36.827725,-0.6601410686396474
375.73,-242.43,895.51,0.61,0.37,-0.12,-13.17,-5.6,20.74,2025-03-12T10:13:36.878444,986.33,-119.87,-179.44,4.7,-0.61,-4.02,-103.88,-3.65,11.24,2025-03-12T10:13:36.878444,-0.6466690325014719
379.64,-235.6,901.37,1.46,0.43,0.18,-13.29,-5.7,20.74,2025-03-12T10:13:36.885059,967.29,-98.63,-194.58,-4.39,-0.85,-3.17,-103.94,-3.78,11.23,2025-03-12T10:13:36.885059,-0.6314327532320632
378.42,-245.12,900.15,2.5,0.24,-0.67,-13.37,-5.8,20.72,2025-03-12T10:13:36.914827,980.47,-125.24,-174.8,-1.16,-1.4,-3.05,-103.96,-3.95,11.14,2025-03-12T10:13:36.914827,-0.60888645948402
382.32,-233.15,902.1,2.32,0.06,-0.49,-13.49,-5.95,20.69,2025-03-12T10:13:36.983872,978.76,-83.5,-193.6,-2.5,-1.46,-2.74,-104.04,-4.17,11.06,2025-03-12T10:13:36.983872,-0.5838692733559225
371.58,-240.23,900.15,1.95,-0.24,-0.43,-13.6,-6.03,20.66,2025-03-12T10:13:36.984102,975.1,-102.29,-193.36,-1.34,-1.16,-3.11,-104.12,-4.42,10.87,2025-03-12T10:13:36.984102,-0.558877925384665
376.22,-224.12,893.55,2.5,-0.3,-0.24,-13.62,-6.09,20.61,2025-03-12T10:13:37.014881,980.47,-97.9,-198.73,-2.5,-0.49,-2.38,-104.25,-4.66,10.74,2025-03-12T10:13:37.014881,-0.5399680099191886
388.92,-219.48,906.25,2.5,-0.06,0.24,,,,2025-03-12T10:13:37.087006,967.29,-93.51,-198.49,-5.0,-1.4,-2.38,-104.35,-4.96,10.35,2025-03-12T10:13:37.087006,-0.5142676577972771
374.51,-231.69,896.0,2.74,0.06,0.85,-13.68,-6.28,20.47,2025-03-12T10:13:37.087183,960.21,-93.99,-165.53,-11.16,-3.84,-2.56,-104.48,-5.24,10.08,2025-03-12T10:13:37.087183,-0.465391009167774
373.78,-212.89,910.4,2.13,-0.12,-0.06,-13.7,-6.37,20.4,2025-03-12T10:13:37.116655,969.24,-140.14,-169.68,-15.37,-5.18,-0.91,-104.59,-5.55,9.74,2025-03-12T10:13:37.116655,-0.40152482306770243
378.42,-256.1,900.15,4.27,1.04,-1.46,-13.67,-6.42,20.37,2025-03-12T10:13:37.187113,993.16,-117.43,-183.84,-7.93,-4.09,-2.32,-104.79,-5.77,9.38,2025-03-12T10:13:37.187113,-0.3601281378189942
376.46,-210.69,908.45,4.45,1.22,-0.85,-13.67,-6.42,20.39,2025-03-12T10:13:37.187806,989.5,-64.94,-227.05,2.62,-3.11,-3.6,-104.92,-5.98,9.34,2025-03-12T10:13:37.187806,-0.32977885568940124
365.97,-223.88,905.76,1.83,-0.49,0.37,-13.69,-6.43,20.41,2025-03-12T10:13:37.221136,994.14,-111.33,-203.61,-0.3,0.06,-4.51,-105.06,-6.1,9.19,2025-03-12T10:13:37.221136,-0.31390620235999855
375.24,-227.05,917.72,3.05,-0.3,-0.79,-13.72,-6.44,20.44,2025-03-12T10:13:37.293167,990.97,-87.89,-228.52,6.77,1.83,-4.57,-105.17,-6.24,9.28,2025-03-12T10:13:37.293167,-0.31769460580225695
366.46,-228.52,902.34,0.79,0.49,-0.79,-13.78,-6.53,20.49,2025-03-12T10:13:37.293882,981.69,-47.12,-246.09,-11.71,4.27,-3.35,-105.23,-6.37,9.02,2025-03-12T10:13:37.293882,-0.35402491926806
375.98,-218.75,889.4,2.74,2.74,0.61,-13.83,-6.71,20.56,2025-03-12T10:13:37.422792,974.12,-95.46,-173.58,-3.11,3.35,-2.87,-105.23,-6.47,9.16,2025-03-12T10:13:37.422792,-0.40355917551476495
384.77,-203.61,931.88,3.54,3.29,0.49,-13.88,-6.86,20.59,2025-03-12T10:13:37.423741,983.15,-89.6,-171.63,14.7,2.68,-3.17,-105.19,-6.55,9.07,2025-03-12T10:13:37.423741,-0.4517646002820648
397.22,-256.1,940.43,-2.01,14.09,-6.71,-13.94,-6.99,20.63,2025-03-12T10:13:37.424455,987.3,-156.98,-186.04,-0.49,-2.62,-2.87,-104.99,-6.66,8.98,2025-03-12T10:13:37.424455,-0.5558975698719042
430.42,-156.49,930.18,0.37,11.83,-30.91,-14.03,-7.14,20.67,2025-03-12T10:13:37.429926,987.55,-106.2,-227.29,-7.01,-0.18,-4.7,-104.6,-6.72,8.98,2025-03-12T10:13:37.429926,-0.6626385586649086
350.34,80.08,1018.55,2.87,28.96,-75.79,-14.12,-7.35,20.69,2025-03-12T10:13:37.497290,979.0,260.74,-272.46,-17.99,3.72,1.59,-104.1,-6.8,9.32,2025-03-12T10:13:37.497290,-0.9840355400852738
363.53,42.48,1018.8,-0.85,44.57,-84.7,-14.25,-7.62,20.7,2025-03-12T10:13:37.500340,991.46,90.58,-228.52,-100.91,9.21,10.98,-103.52,-6.93,9.1,2025-03-12T10:13:37.500340,-1.5195832378291054
298.1,-250.24,833.25,-16.71,29.39,-83.84,-14.35,-7.85,20.69,2025-03-12T10:13:37.539541,986.57,-71.29,-143.55,-84.21,13.72,9.51,-103.07,-7.01,9.08,2025-03-12T10:13:37.539541,-1.9485056255689983
219.48,-538.82,719.73,-13.54,0.12,-44.21,-14.45,-7.94,20.73,2025-03-12T10:13:37.600556,979.49,-157.71,-105.47,-88.84,13.41,10.98,-102.8,-7.06,8.72,2025-03-12T10:13:37.600556,-2.0828226006855095
343.02,-692.63,740.72,-0.49,-37.2,17.99,-14.53,-7.97,20.79,2025-03-12T10:13:37.605287,942.14,-408.2,-83.74,-15.37,8.9,3.48,-102.69,-7.06,8.46,2025-03-12T10:13:37.605287,-1.7941530630400566
365.72,-67.14,991.21,15.67,-29.21,14.27,-14.61,-8.01,20.84,2025-03-12T10:13:37.640308,1012.7,-42.24,-177.25,81.16,3.11,-8.29,-102.63,-6.98,8.5,2025-03-12T10:13:37.640308,-1.5160311001671933
390.14,-6.35,955.08,-3.72,-13.17,2.2,-14.69,-7.99,20.86,2025-03-12T10:13:37.700027,955.08,148.19,-198.73,20.0,4.21,-0.55,-102.61,-6.88,8.76,2025-03-12T10:13:37.700027,-1.4145999030173915
382.57,-184.33,909.18,-11.71,-9.21,-0.55,-13.04,-10.54,-0.56,2025-03-12T10:13:37.712680,1000.49,-92.29,-197.75,-32.99,5.67,5.73,-102.67,-6.8,8.61,2025-03-12T10:13:37.712680,-1.371553217475642
422.61,-253.17,889.16,-10.49,-3.17,0.85,-14.83,-7.89,20.84,2025-03-12T10:13:37.750250,989.01,-127.44,-129.39,-9.27,3.05,2.99,-102.67,-6.73,8.43,2025-03-12T10:13:37.750250,-1.361488691671573
371.34,-223.88,893.31,-3.11,-3.9,-0.55,,,,2025-03-12T10:13:37.806340,966.8,-102.78,-119.38,-6.89,0.98,2.32,-102.65,-6.62,8.56,2025-03-12T10:13:37.806340,-1.3230234182551295
381.59,-206.3,892.58,-1.46,-5.24,-2.2,,,,2025-03-12T10:13:37.815489,974.61,-111.33,-160.16,-3.11,2.5,1.28,-102.64,-6.51,8.7,2025-03-12T10:13:37.815489,-1.285510257365297
419.92,-174.32,910.89,-1.65,-1.89,0.12,,,,2025-03-12T10:13:37.850930,989.99,-71.04,-182.37,-2.32,-1.1,2.07,-102.6,-6.4,8.74,2025-03-12T10:13:37.850930,-1.2459281083932567
384.77,-198.97,908.69,-3.17,-2.07,1.34,0.0,0.0,0.0,2025-03-12T10:13:37.907687,981.45,-84.72,-160.4,0.43,-2.44,1.4,-102.56,-6.24,9.05,2025-03-12T10:13:37.907687,-1.1909593873355855
392.82,-208.25,897.71,-1.28,-1.1,0.73,0.0,0.0,0.0,2025-03-12T10:13:37.923200,984.62,-87.4,-166.26,2.2,-0.73,0.85,-102.55,-6.13,9.28,2025-03-12T10:13:37.923200,-1.1623975497781036
386.72,-198.73,897.71,1.59,-0.24,-0.24,-15.36,-7.89,20.88,2025-03-12T10:13:37.960023,987.3,-71.78,-138.67,-3.05,-1.28,1.59,-102.53,-6.04,9.05,2025-03-12T10:13:37.960023,-1.1373532113574734
374.02,-181.64,899.17,3.6,0.3,-1.83,-15.39,-7.87,20.87,2025-03-12T10:13:38.008341,990.23,-89.11,-172.36,4.88,0.37,1.22,-102.57,-5.89,9.22,2025-03-12T10:13:38.008341,-1.133828581373109
399.41,-182.62,910.16,3.11,1.77,-1.71,-15.42,-7.85,20.84,2025-03-12T10:13:38.027126,977.05,-60.55,-173.83,1.52,-0.67,0.06,-102.59,-5.77,9.29,2025-03-12T10:13:38.027126,-1.1338230575471835
388.43,-198.24,911.87,-1.65,2.32,-1.28,-15.43,-7.81,20.82,2025-03-12T10:13:38.062173,890.14,-73.97,-178.47,-7.5,2.68,-1.89,-102.64,-5.66,9.31,2025-03-12T10:13:38.062173,-1.1715881756174795
382.81,-199.46,900.63,-2.2,2.62,-0.98,-15.46,-7.79,20.81,2025-03-12T10:13:38.112851,984.86,-102.78,-146.97,-1.22,-1.77,0.12,-102.69,-5.53,9.36,2025-03-12T10:13:38.112851,-1.16930001433426
389.16,-190.43,905.52,-0.24,1.89,-0.43,-15.5,-7.81,20.84,2025-03-12T10:13:38.131080,986.57,-76.9,-152.34,2.68,-1.22,0.79,-102.7,-5.42,9.38,2025-03-12T10:13:38.131080,-1.165587078399563
390.38,-182.86,903.56,-0.79,1.95,-0.73,-15.53,-7.8,20.84,2025-03-12T10:13:38.167308,977.54,-80.81,-160.64,-1.52,-1.34,0.43,-102.78,-5.3,9.59,2025-03-12T10:13:38.167308,-1.1609919599904748
391.36,-195.56,906.49,-1.95,2.13,-0.43,-15.54,-7.75,20.85,2025-03-12T10:13:38.213134,987.55,-94.24,-161.62,0.18,-1.04,0.49,-102.93,-5.14,9.98,2025-03-12T10:13:38.213134,-1.161302026963839
381.1,-200.2,906.74,-1.83,1.34,-0.73,-15.55,-7.67,20.85,2025-03-12T10:13:38.240742,986.33,-73.24,-149.17,-1.71,-0.98,-0.06,-103.09,-4.99,10.47,2025-03-12T10:13:38.240742,-1.153961426624013
371.83,-203.86,903.81,-1.83,1.16,-0.67,-15.55,-7.61,20.85,2025-03-12T10:13:38.271918,985.35,-86.67,-150.88,-2.62,-1.46,0.3,-103.22,-4.87,10.64,2025-03-12T10:13:38.271918,-1.140317034199041
386.72,-197.75,908.94,-1.28,2.26,-0.3,-15.57,-7.6,20.83,2025-03-12T10:13:38.335000,987.79,-80.08,-172.85,6.22,-0.79,-0.43,-103.28,-4.79,10.46,2025-03-12T10:13:38.335000,-1.1438204864980852
386.23,-195.07,902.83,-1.1,1.34,-0.55,-15.63,-7.56,20.82,2025-03-12T10:13:38.344361,984.13,-80.32,-165.53,-0.73,-1.1,-0.61,-103.25,-4.66,10.39,2025-03-12T10:13:38.344361,-1.1348871110229648
370.36,-192.14,906.98,-0.37,0.49,-0.73,-15.68,-7.54,20.85,2025-03-12T10:13:38.417239,993.65,-91.06,-152.34,-0.24,-1.77,-0.85,-103.15,-4.52,10.26,2025-03-12T10:13:38.417239,-1.1106220299464602
380.37,-196.53,903.81,-0.3,0.43,-0.49,-15.66,-7.52,20.84,2025-03-12T10:13:38.417822,986.57,-75.93,-165.28,0.18,-2.38,-1.59,-103.02,-4.31,10.65,2025-03-12T10:13:38.417822,-1.0791862013132176
385.5,-207.28,908.45,0.06,0.55,-1.22,-15.55,-7.48,20.79,2025-03-12T10:13:38.446971,990.23,-83.74,-166.75,-2.13,-1.34,-0.91,-102.92,-4.22,10.59,2025-03-12T10:13:38.446971,-1.0597750950562692
375.98,-197.51,906.98,-1.22,0.49,-1.04,-15.32,-7.59,20.8,2025-03-12T10:13:38.519358,987.55,-72.02,-166.02,-1.22,-1.16,-1.16,-102.81,-4.23,10.13,2025-03-12T10:13:38.519358,-1.0413690647859193
372.31,-192.63,912.35,-1.04,0.67,-1.22,-14.95,-7.56,21.15,2025-03-12T10:13:38.520274,984.62,-80.81,-169.92,-2.87,-1.28,-1.52,-102.86,-4.1,10.18,2025-03-12T10:13:38.520274,-1.0232951027742951
374.51,-207.52,905.27,-0.43,0.37,-1.16,-14.57,-7.02,22.65,2025-03-12T10:13:38.553223,987.06,-77.88,-166.75,-1.65,-0.91,-0.98,-102.87,-3.94,10.31,2025-03-12T10:13:38.553223,-1.0063374672431717
384.52,-185.06,905.27,-0.3,0.43,-1.4,-13.8,-6.33,25.32,2025-03-12T10:13:38.623405,974.61,-82.76,-175.54,-1.83,-0.18,-1.28,-102.78,-3.64,11.73,2025-03-12T10:13:38.623405,-0.9969160461094504
384.03,-192.63,907.96,-1.4,0.3,-1.22,-12.78,-5.97,28.35,2025-03-12T10:13:38.624209,988.77,-76.17,-175.05,-1.95,0.3,-1.4,-102.64,-3.17,15.27,2025-03-12T10:13:38.624209,-0.990937681747982
375.98,-189.94,908.69,-1.22,0.18,-1.34,-12.31,-6.08,31.11,2025-03-12T10:13:38.754675,984.38,-77.88,-165.28,-3.9,-0.49,-1.16,-102.25,-2.9,18.23,2025-03-12T10:13:38.754675,-0.9760265974847806
366.7,-200.68,917.97,-1.65,0.18,-1.65,-12.82,-6.58,32.12,2025-03-12T10:13:38.755045,988.53,-73.24,-160.16,-1.89,-0.55,-0.98,-101.88,-2.73,20.98,2025-03-12T10:13:38.755045,-0.9606765777885757
378.66,-201.17,911.87,-1.28,0.67,-1.52,-14.09,-6.64,31.4,2025-03-12T10:13:38.755520,987.3,-75.93,-167.72,1.22,-0.98,-1.83,-101.61,-2.98,20.42,2025-03-12T10:13:38.755520,-0.9453303410636509
378.66,-190.92,903.08,-0.91,1.46,-1.77,-14.91,-6.33,30.96,2025-03-12T10:13:38.760697,981.45,-63.96,-159.91,-0.3,-0.12,-1.71,-101.37,-3.2,17.82,2025-03-12T10:13:38.760697,-0.9464698253833654
373.05,-196.04,908.94,0.61,0.61,-1.71,-15.36,-6.56,31.0,2025-03-12T10:13:38.832012,990.97,-95.46,-152.59,2.87,-0.12,-2.26,-101.24,-3.2,17.83,2025-03-12T10:13:38.832012,-0.9387893671046594
379.88,-193.6,904.54,-0.12,0.49,-2.26,-15.66,-7.04,31.15,2025-03-12T10:13:38.839872,979.0,-56.88,-172.36,3.29,-1.59,-3.9,-101.12,-3.23,18.84,2025-03-12T10:13:38.839872,-0.9140500142123755
378.66,-204.35,906.25,0.85,-0.18,-2.56,-15.84,-7.37,31.22,2025-03-12T10:13:38.866899,981.69,-81.79,-168.46,-5.67,0.3,-2.87,-101.03,-3.29,19.14,2025-03-12T10:13:38.866899,-0.9022041233874509
369.87,-190.92,919.92,1.83,-1.28,-2.44,-16.06,-7.48,31.27,2025-03-12T10:13:38.927970,988.53,-74.95,-149.66,-2.8,-0.73,-4.45,-100.96,-3.35,19.34,2025-03-12T10:13:38.927970,-0.867934007582247
382.32,-204.1,908.69,1.77,-1.65,-2.32,-16.27,-7.54,31.34,2025-03-12T10:13:38.937563,984.86,-76.66,-153.81,3.84,-1.59,-5.49,-100.96,-3.38,19.52,2025-03-12T10:13:38.937563,-0.8207270577506027
377.93,-191.89,904.05,5.12,-1.89,-3.17,-16.38,-7.62,31.35,2025-03-12T10:13:38.971876,977.29,-73.73,-161.87,-0.43,-1.65,-6.71,-101.0,-3.43,19.57,2025-03-12T10:13:38.971876,-0.769607691227991
384.28,-185.79,906.25,6.1,-1.16,-3.96,-16.5,-7.75,31.35,2025-03-12T10:13:39.032487,990.48,-57.86,-180.91,2.2,-0.98,-6.52,-101.05,-3.49,19.48,2025-03-12T10:13:39.032487,-0.7325511856316906
380.86,-185.06,910.4,7.56,-0.85,-4.7,-16.58,-7.8,31.35,2025-03-12T10:13:39.041672,975.83,-43.46,-167.72,-1.83,-0.73,-6.83,-101.06,-3.54,19.32,2025-03-12T10:13:39.041672,-0.7008906833921231
376.95,-173.58,913.82,7.93,-0.37,-3.66,-16.63,-7.75,31.36,2025-03-12T10:13:39.076853,983.64,-63.48,-163.09,0.06,-0.98,-6.46,-101.1,-3.58,19.46,2025-03-12T10:13:39.076853,-0.6718470162616133
373.29,-195.56,914.55,9.51,1.52,-3.96,-16.65,-7.62,31.4,2025-03-12T10:13:39.135419,982.18,-61.04,-166.02,5.85,-2.8,-9.09,-101.07,-3.64,19.25,2025-03-12T10:13:39.135419,-0.6419548526642707
379.64,-148.68,926.51,9.57,2.62,-5.3,-16.64,-7.57,31.45,2025-03-12T10:13:39.146476,1004.88,-24.9,-181.4,1.65,-1.04,-7.38,-101.1,-3.64,19.29,2025-03-12T10:13:39.146476,-0.6416605285675634
383.54,-165.04,906.49,6.4,1.71,-4.76,-16.61,-7.63,31.5,2025-03-12T10:13:39.181960,987.06,-32.47,-190.67,-4.21,-1.83,-8.9,-101.06,-3.59,19.52,2025-03-12T10:13:39.181960,-0.6234828620853281
375.98,-136.23,918.95,6.77,2.07,-4.51,-16.57,-7.71,31.56,2025-03-12T10:13:39.240766,994.14,-21.97,-179.93,-1.77,0.24,-7.62,-101.1,-3.61,19.5,2025-03-12T10:13:39.240766,-0.6303241487870173
384.52,-157.96,915.53,4.63,1.04,-3.11,-16.56,-7.74,31.59,2025-03-12T10:13:39.250887,971.19,-15.87,-179.93,-0.79,0.24,-8.96,-101.12,-3.65,19.45,2025-03-12T10:13:39.250887,-0.6260210353677462
381.1,-145.02,914.55,5.79,1.34,-3.41,-16.54,-7.8,31.63,2025-03-12T10:13:39.287587,989.99,-35.64,-164.79,-0.24,0.49,-8.6,-101.16,-3.66,19.52,2025-03-12T10:13:39.287587,-0.6274491197423508
381.35,-135.5,920.41,5.91,0.79,-4.57,-16.53,-7.88,31.68,2025-03-12T10:13:39.337798,989.99,-9.77,-170.65,-1.28,-0.37,-9.27,-101.18,-3.69,19.51,2025-03-12T10:13:39.337798,-0.6143772734352422
360.35,-142.58,925.29,6.83,-2.5,-5.55,-16.54,-7.96,31.72,2025-03-12T10:13:39.367035,1042.72,-13.92,-154.05,-2.5,-1.59,-7.62,-101.2,-3.69,19.61,2025-03-12T10:13:39.367035,-0.5575063376626099
432.62,-121.09,970.7,1.89,-20.24,-15.37,-16.54,-8.04,31.77,2025-03-12T10:13:39.393490,1009.03,-27.1,-20.51,-7.13,-8.29,-7.38,-101.24,-3.7,19.59,2025-03-12T10:13:39.393490,-0.25700160249008963
426.27,-154.79,953.37,-0.37,-14.51,-10.79,-16.52,-8.09,31.79,2025-03-12T10:13:39.448133,1004.88,3.91,2.69,-6.04,-18.11,-7.44,-101.26,-3.72,19.44,2025-03-12T10:13:39.448133,0.08444327753195058
438.48,-236.82,949.95,14.7,-19.57,-14.02,-16.54,-8.13,31.82,2025-03-12T10:13:39.462712,1043.46,-27.83,42.72,-43.6,-36.34,-5.24,-101.28,-3.69,19.49,2025-03-12T10:13:39.462712,0.6562042940246855
410.64,-323.49,1021.0,28.72,-18.96,-19.02,-16.57,-8.16,31.85,2025-03-12T10:13:39.542371,1083.01,-170.41,-54.44,-19.02,-54.45,-5.55,-101.32,-3.67,19.46,2025-03-12T10:13:39.542371,1.4010974969583625
120.85,-594.97,1035.16,31.34,-5.55,-6.16,-16.61,-8.19,31.89,2025-03-12T10:13:39.543359,1072.75,-7.32,-160.4,18.23,-51.59,-2.8,-101.38,-3.62,19.49,2025-03-12T10:13:39.543359,1.9791433842760155
-135.5,-343.02,1173.34,9.63,-3.78,32.62,-16.63,-8.2,31.93,2025-03-12T10:13:39.567925,1073.73,-24.66,-126.71,2.5,-24.7,2.99,-101.41,-3.58,19.54,2025-03-12T10:13:39.567925,2.27137851428572
-130.13,-225.83,1200.68,-16.71,31.04,32.13,-16.67,-8.25,31.99,2025-03-12T10:13:39.601650,1047.85,-8.3,-94.48,21.46,20.06,7.2,-101.44,-3.53,19.57,2025-03-12T10:13:39.601650,1.7652552230932095
-47.61,-271.73,1045.41,-30.37,62.26,24.21,-16.7,-8.29,32.05,2025-03-12T10:13:39.644918,1011.72,89.36,-109.38,9.33,57.8,12.07,-101.48,-3.48,19.64,2025-03-12T10:13:39.644918,0.5664404736109496
187.26,-264.65,1057.62,-36.4,59.09,22.56,-16.74,-8.31,32.11,2025-03-12T10:13:39.675238,1010.5,-17.09,-79.59,-10.98,81.1,18.72,-101.49,-3.44,19.68,2025-03-12T10:13:39.675238,-0.8355709646791691
304.93,-243.9,968.02,-40.43,55.85,35.06,-16.78,-8.33,32.16,2025-03-12T10:13:39.753089,1025.63,-50.54,-90.33,10.18,88.23,16.65,-101.49,-3.39,19.74,2025-03-12T10:13:39.753089,-2.274879387498939
352.05,-166.02,1031.98,-34.33,47.26,49.63,-16.82,-8.39,32.23,2025-03-12T10:13:39.753740,974.61,12.94,-95.95,29.76,88.35,12.62,-101.48,-3.33,19.84,2025-03-12T10:13:39.753740,-3.6282505097059143
366.21,-34.67,970.46,-24.39,62.68,53.48,-16.86,-8.44,32.3,2025-03-12T10:13:39.777137,951.9,21.73,-122.56,33.66,84.94,9.57,-101.49,-3.27,19.95,2025-03-12T10:13:39.777137,-5.101573805229361
394.04,-6.59,833.74,-33.6,59.02,33.54,-16.9,-8.5,32.37,2025-03-12T10:13:39.850750,958.74,62.01,-79.1,18.6,80.85,9.57,-101.48,-3.24,19.99,2025-03-12T10:13:39.850750,-6.497213181094117
505.37,-71.29,814.45,-27.56,40.98,16.71,-16.93,-8.54,32.44,2025-03-12T10:13:39.851506,927.73,4.39,-47.12,-1.59,68.9,9.7,-101.49,-3.19,19.91,2025-03-12T10:13:39.851506,-7.591955104120146
430.18,-146.97,776.37,-28.6,36.89,14.57,-16.93,-8.58,32.52,2025-03-12T10:13:39.883003,889.4,-56.4,-33.94,-5.49,50.18,10.06,-101.48,-3.15,19.93,2025-03-12T10:13:39.883003,-8.459639696973527
371.34,-136.47,694.09,-16.71,16.89,7.74,-16.97,-8.57,32.58,2025-03-12T10:13:39.951054,909.42,-26.86,-21.73,5.91,31.71,8.35,-101.47,-3.1,19.74,2025-03-12T10:13:39.951054,-8.940769329140085
374.51,-130.13,735.6,-8.05,2.07,3.9,-17.02,-8.57,32.67,2025-03-12T10:13:39.952584,854.74,-24.9,-1.95,0.91,14.33,6.59,-101.5,-3.0,19.69,2025-03-12T10:13:39.952584,-9.098231404618916
418.21,-171.63,793.21,-2.13,-13.6,-2.93,-17.11,-8.53,32.74,2025-03-12T10:13:39.986684,896.97,-31.98,-35.64,5.37,-2.2,7.38,-101.49,-2.86,19.83,2025-03-12T10:13:39.986684,-8.932619620711115
418.21,-197.75,765.87,6.22,-21.65,-8.78,-17.2,-8.46,32.81,2025-03-12T10:13:40.054166,892.33,-49.32,-55.18,2.93,-19.57,7.2,-101.5,-2.71,19.82,2025-03-12T10:13:40.054166,-8.511401556821983
419.68,-171.63,729.74,13.72,-30.79,-7.8,-17.31,-8.37,32.87,2025-03-12T10:13:40.056688,908.45,-53.71,-53.96,4.39,-31.59,7.26,-101.52,-2.54,19.66,2025-03-12T10:13:40.056688,-7.879106015964331
109.38,-330.08,950.44,21.83,-47.2,-7.32,-17.42,-8.18,32.94,2025-03-12T10:13:40.093849,985.35,-30.27,19.04,5.49,-46.4,8.23,-101.56,-2.33,19.61,2025-03-12T10:13:40.093849,-6.937988998944031
-142.09,-339.36,1338.87,-17.5,-86.04,-7.44,-17.51,-7.95,33.01,2025-03-12T10:13:40.156756,1508.79,235.6,482.18,-29.27,-32.32,17.07,-101.58,-2.12,19.5,2025-03-12T10:13:40.156756,-5.758169908215898
701.66,47.61,929.2,-19.21,-87.56,-16.16,-17.57,-7.66,33.09,2025-03-12T10:13:40.161552,971.92,-288.57,37.11,44.33,-38.11,0.67,-101.6,-1.89,19.51,2025-03-12T10:13:40.161552,-4.487241322543035
276.12,-449.22,1026.61,-3.29,-67.07,-46.16,-17.61,-7.37,33.13,2025-03-12T10:13:40.197283,1003.42,172.61,-84.47,42.5,-60.3,4.02,-101.63,-1.68,19.39,2025-03-12T10:13:40.197283,-3.193786083766244
644.78,-520.02,898.44,38.66,-42.32,-19.82,-17.59,-7.03,33.19,2025-03-12T10:13:40.262028,999.51,-368.65,-178.22,-39.02,-43.66,28.05,-101.7,-1.41,19.15,2025-03-12T10:13:40.262028,-2.3330774381185564
409.42,-106.69,1003.66,53.66,-23.54,-6.16,-17.56,-6.69,33.26,2025-03-12T10:13:40.276958,977.54,-67.38,-154.3,26.77,-37.32,17.5,-101.71,-1.16,19.09,2025-03-12T10:13:40.276958,-1.7212254381450238
393.31,-175.54,936.04,14.51,-17.8,-1.46,-17.54,-6.45,33.37,2025-03-12T10:13:40.304334,1031.49,34.42,-52.49,-3.35,-45.91,20.12,-101.75,-0.83,19.16,2025-03-12T10:13:40.304334,-1.0830349243434205
414.55,-289.06,896.97,-3.96,-25.91,2.38,-17.52,-6.21,33.45,2025-03-12T10:13:40.362957,962.16,-220.21,-125.49,11.4,-42.44,19.63,-101.72,-0.56,19.15,2025-03-12T10:13:40.362957,-0.39915815315544223
478.52,-222.9,921.63,-6.4,-6.52,-0.49,-17.53,-6.04,33.51,2025-03-12T10:13:40.374238,931.88,-135.5,-231.69,20.73,-35.06,20.24,-101.7,-0.25,19.13,2025-03-12T10:13:40.374238,0.018284591958967145
416.99,-235.11,899.9,-1.95,3.6,-1.52,-17.53,-5.81,33.56,2025-03-12T10:13:40.408155,986.57,-204.1,-152.34,-19.57,-32.07,24.33,-101.68,0.04,19.05,2025-03-12T10:13:40.408155,0.3027563519101455
417.48,-238.28,882.57,-3.23,4.21,-0.98,-17.56,-5.59,33.66,2025-03-12T10:13:40.470185,984.13,-261.47,-157.96,4.82,-31.83,14.15,-101.67,0.35,19.08,2025-03-12T10:13:40.470185,0.5828827982464524
370.12,-238.04,900.15,-1.89,3.05,-1.83,-17.83,-5.34,33.9,2025-03-12T10:13:40.482733,973.14,-206.05,-119.38,-13.48,-31.77,13.29,-101.76,0.61,19.15,2025-03-12T10:13:40.482733,0.8743510742471103
412.11,-228.03,877.44,-4.45,2.38,-4.76,-18.65,-5.25,34.36,2025-03-12T10:13:40.523095,963.87,-298.34,-211.91,-9.94,-30.67,8.54,-102.05,0.94,19.47,2025-03-12T10:13:40.523095,1.1640180233030097
397.95,-254.64,895.51,-4.51,3.72,-6.46,-19.27,-5.07,34.68,2025-03-12T10:13:40.566990,940.19,-170.17,-174.56,-20.37,-31.59,8.84,-102.72,1.28,19.88,2025-03-12T10:13:40.566990,1.4493639169773356
391.36,-239.26,883.54,-0.55,4.02,-7.07,-20.08,-4.37,34.97,2025-03-12T10:13:40.581880,947.27,-231.2,-239.26,-5.67,-35.43,8.11,-103.99,1.75,21.24,2025-03-12T10:13:40.581880,1.7703165842227127
388.43,-254.88,893.07,2.26,2.44,-7.68,-20.72,-3.1,35.19,2025-03-12T10:13:40.617082,928.96,-212.4,-263.43,-14.94,-35.49,8.17,-105.9,1.97,21.41,2025-03-12T10:13:40.617082,2.1074660744610108
392.58,-232.42,890.14,0.79,0.49,-8.17,-20.97,-2.26,34.67,2025-03-12T10:13:40.669479,928.71,-162.6,-368.41,-3.84,-33.66,8.17,-107.47,1.88,20.95,2025-03-12T10:13:40.669479,2.4459087961509423
392.09,-247.07,892.82,1.1,-2.13,-6.22,-20.79,-2.63,33.5,2025-03-12T10:13:40.686619,935.79,-218.75,-298.1,-15.91,-34.51,8.9,-107.86,1.65,20.87,2025-03-12T10:13:40.686619,2.817941487479688
400.88,-241.46,896.24,0.67,-3.84,-6.77,-19.33,-3.64,32.79,2025-03-12T10:13:40.725991,933.11,-219.24,-356.93,-3.05,-32.5,5.73,-106.74,1.15,20.22,2025-03-12T10:13:40.725991,3.188887127707762
404.3,-251.95,899.41,-1.4,-8.05,-8.41,-17.01,-5.04,32.36,2025-03-12T10:13:40.770460,917.97,-195.31,-339.84,-20.0,-31.71,7.26,-104.39,0.7,20.31,2025-03-12T10:13:40.770460,3.593162309152449
410.16,-259.77,886.96,-2.87,-10.79,-8.66,-14.84,-6.68,31.86,2025-03-12T10:13:40.792420,953.12,-259.77,-307.62,-20.73,-36.16,5.37,-101.39,0.1,20.66,2025-03-12T10:13:40.792420,4.070130528464396
404.79,-254.64,899.66,-3.6,-16.28,-14.63,-12.87,-8.33,30.88,2025-03-12T10:13:40.870775,960.21,-268.55,-280.27,-23.72,-41.59,4.57,-98.28,-0.53,20.24,2025-03-12T10:13:40.870775,4.657498105651648
426.51,-206.54,896.0,-4.02,-27.2,-18.17,-10.84,-9.9,29.33,2025-03-12T10:13:40.890368,951.66,-242.68,-330.81,-23.17,-50.85,-2.93,-95.21,-1.06,19.25,2025-03-12T10:13:40.890368,5.452774586644158
436.04,-224.12,896.0,-1.83,-44.09,-15.24,-8.45,-11.14,27.78,2025-03-12T10:13:40.897565,975.83,-213.38,-342.04,-17.13,-57.13,-5.61,-92.26,-1.44,18.14,2025-03-12T10:13:40.897565,6.481134774965974
459.72,-251.46,904.54,-6.59,-63.54,-18.9,-6.46,-12.33,26.93,2025-03-12T10:13:40.934510,1008.3,-208.25,-368.9,-24.21,-65.79,-7.44,-89.53,-1.75,17.72,2025-03-12T10:13:40.934510,7.792554475303385
481.93,-289.31,901.86,-0.55,-93.78,-18.54,-5.09,-13.45,26.5,2025-03-12T10:13:40.976383,1239.5,-149.17,-421.63,-3.05,-86.59,-20.0,-87.33,-2.11,17.87,2025-03-12T10:13:40.976383,9.624217003931225
537.84,-202.39,898.93,5.98,-169.51,-33.35,-3.94,-14.37,26.11,2025-03-12T10:13:41.005300,1094.73,-47.36,-327.39,-14.02,-92.5,-17.13,-85.76,-2.46,17.92,2025-03-12T10:13:41.005300,12.27276592284811
570.31,-257.57,891.36,5.67,-236.59,-56.28,-3.5,-14.87,25.91,2025-03-12T10:13:41.076979,1235.84,-99.85,-129.88,-30.18,-118.48,-16.34,-84.81,-2.71,17.72,2025-03-12T10:13:41.076979,15.85367212818215
917.24,-434.81,782.71,-4.15,-248.11,-68.96,,,,2025-03-12T10:13:41.080012,1125.24,-105.71,-311.52,-31.22,-131.4,-5.49,-84.43,-2.93,17.63,2025-03-12T10:13:41.080012,19.669780028043565
1203.86,-557.62,1325.2,-83.72,-168.35,-39.27,-4.15,-15.0,26.01,2025-03-12T10:13:41.109437,888.18,-164.31,-660.64,-27.13,-135.0,-2.68,-84.63,-3.16,17.41,2025-03-12T10:13:41.109437,22.718275606465113
446.53,-156.25,1324.46,-9.21,-49.51,-64.27,-5.6,-14.47,26.43,2025-03-12T10:13:41.184482,875.49,-139.65,-648.19,-1.52,-91.83,4.33,-85.42,-3.41,17.23,2025-03-12T10:13:41.184482,24.152152138623073
95.46,-532.96,1140.87,18.66,23.35,-32.93,-7.3,-13.72,26.68,2025-03-12T10:13:41.186372,767.58,63.48,-533.69,-88.05,-18.6,12.13,-86.7,-3.65,17.04,2025-03-12T10:13:41.186372,24.10375800937522
17.58,-361.08,905.52,15.06,83.78,-10.61,-9.84,-13.73,26.83,2025-03-12T10:13:41.214327,692.63,-172.61,-481.45,-71.46,40.49,1.04,-88.34,-3.97,17.1,2025-03-12T10:13:41.214327,22.86908403385779
67.38,-428.71,758.79,15.3,131.1,21.77,-13.16,-14.32,27.5,2025-03-12T10:13:41.286871,622.31,-217.53,-552.49,16.65,90.73,-1.28,-89.17,-4.53,17.51,2025-03-12T10:13:41.286871,20.660221322043295
273.68,-378.17,856.93,4.88,160.67,70.18,-16.11,-14.22,29.01,2025-03-12T10:13:41.287538,610.6,-158.94,-617.68,57.68,130.98,-14.15,-90.73,-4.55,15.74,2025-03-12T10:13:41.287538,17.764138936487065
514.4,-245.12,870.61,11.52,178.35,90.98,-17.97,-13.09,29.69,2025-03-12T10:13:41.319253,763.92,-24.41,-627.44,60.0,161.71,-34.63,-92.48,-4.96,15.49,2025-03-12T10:13:41.319253,14.403887475256592
757.57,-288.82,1036.87,17.62,191.28,88.78,-18.87,-11.13,29.42,2025-03-12T10:13:41.387849,878.17,-31.01,-719.73,11.16,184.21,-42.56,-94.14,-5.79,16.29,2025-03-12T10:13:41.387849,10.69669432129666
927.49,-431.64,934.33,17.07,186.16,91.04,-19.52,-10.25,29.2,2025-03-12T10:13:41.388297,899.9,-166.02,-683.59,16.95,186.16,-35.0,-95.44,-6.51,15.55,2025-03-12T10:13:41.388297,7.0127351298487115
946.78,-446.29,802.98,4.82,155.98,84.82,-20.42,-10.39,29.14,2025-03-12T10:13:41.423386,940.67,-162.11,-662.35,36.1,179.15,-21.71,-97.06,-7.12,15.79,2025-03-12T10:13:41.423386,3.687367676922257
839.84,-311.52,854.98,-22.2,131.04,62.87,-20.9,-10.61,29.24,2025-03-12T10:13:41.489410,883.54,-61.77,-622.07,28.41,179.45,-1.4,-98.4,-7.93,15.12,2025-03-12T10:13:41.489410,0.59119068879059
802.49,-335.21,1022.71,-39.15,139.57,57.68,-20.87,-10.68,29.33,2025-03-12T10:13:41.492919,869.63,4.64,-568.12,0.43,179.51,13.96,-99.61,-8.72,14.94,2025-03-12T10:13:41.492919,-2.6062454008123965
682.37,-204.35,835.69,-39.27,122.01,49.7,-20.76,-10.78,29.39,2025-03-12T10:13:41.528122,899.9,-102.54,-441.89,22.44,174.57,16.59,-100.86,-9.41,15.56,2025-03-12T10:13:41.528122,-5.582167336645228
670.41,-154.3,729.49,-53.96,61.22,30.06,-20.67,-10.84,29.48,2025-03-12T10:13:41.591133,972.9,-43.21,-354.49,23.17,158.11,17.2,-101.92,-9.93,15.53,2025-03-12T10:13:41.591133,-7.783206143805096
1073.49,-303.47,1091.55,-62.5,100.98,39.57,-20.64,-10.96,29.67,2025-03-12T10:13:41.598930,874.02,-83.5,-379.39,-7.13,127.56,20.18,-103.1,-10.23,16.3,2025-03-12T10:13:41.598930,-10.086242314746173
900.39,75.68,537.84,-52.07,77.32,-5.06,-20.59,-11.09,29.93,2025-03-12T10:13:41.634720,894.53,-98.39,-259.52,-10.43,83.9,21.65,-104.85,-10.5,17.01,2025-03-12T10:13:41.634720,-11.697631243254541
1008.54,119.63,173.83,-29.27,-0.61,-53.72,-20.53,-11.07,30.19,2025-03-12T10:13:41.694123,768.31,-76.9,-157.71,-50.24,13.17,22.07,-106.14,-10.71,17.53,2025-03-12T10:13:41.694123,-11.796028586076229
1216.8,-354.0,403.08,31.4,-28.41,-15.55,-20.51,-10.97,30.42,2025-03-12T10:13:41.705006,738.28,-279.05,-271.97,6.65,-57.01,10.49,-107.48,-10.88,17.93,2025-03-12T10:13:41.705006,-10.933135070804234
334.96,-121.58,375.49,13.11,-160.67,-17.56,-20.56,-10.86,30.69,2025-03-12T10:13:41.740298,1744.38,331.05,510.5,17.62,-92.26,8.05,-108.75,-11.1,18.21,2025-03-12T10:13:41.740298,-8.395497662636602
793.21,-567.38,2328.37,29.76,-61.46,-13.41,-20.68,-10.76,30.91,2025-03-12T10:13:41.798002,973.88,-345.95,-125.0,42.2,-62.56,-3.9,-110.05,-11.22,18.81,2025-03-12T10:13:41.798002,-7.136926823448339
274.9,-780.52,1111.33,65.12,-74.39,-52.26,-20.86,-10.68,31.13,2025-03-12T10:13:41.812074,1041.5,154.79,-81.3,64.02,-89.7,0.43,-111.24,-11.38,19.07,2025-03-12T10:13:41.812074,-5.4656140583646815
478.76,-271.73,911.62,74.27,-74.02,-2.56,-21.17,-10.63,31.41,2025-03-12T10:13:41.846267,820.31,-292.48,-213.38,2.5,-69.82,19.7,-112.46,-11.4,19.65,2025-03-12T10:13:41.846267,-4.030581753177827
461.18,-365.72,964.84,79.88,-23.23,-34.27,-21.6,-10.62,31.73,2025-03-12T10:13:41.898818,1073.24,-15.87,-204.35,64.7,-51.83,17.99,-113.81,-11.32,20.46,2025-03-12T10:13:41.898818,-3.2729192081003244
429.2,-23.19,1043.21,25.43,-29.88,-9.27,-22.23,-10.6,32.21,2025-03-12T10:13:41.917475,992.92,62.99,-150.15,-27.68,-47.74,24.88,-115.3,-11.18,21.23,2025-03-12T10:13:41.917475,-2.4986977142868434
403.08,-288.57,917.48,-0.61,-6.1,-1.95,-23.2,-10.5,32.85,2025-03-12T10:13:41.952265,998.05,-505.86,-166.75,-5.0,-49.76,16.95,-116.98,-10.86,22.09,2025-03-12T10:13:41.952265,-1.940810362906852
413.82,-264.4,889.4,-0.61,3.6,-5.06,-24.68,-10.37,33.41,2025-03-12T10:13:42.002463,919.43,-42.24,-198.73,19.51,-38.41,9.57,-118.91,-10.41,22.64,2025-03-12T10:13:42.002463,-1.5875157572711887
379.39,-219.48,903.32,-1.04,4.33,-7.13,-26.84,-10.31,34.06,2025-03-12T10:13:42.022413,1051.76,-308.35,-88.87,-43.48,-37.74,14.57,-121.15,-9.82,23.18,2025-03-12T10:13:42.022413,-1.2512840387158737
344.97,-262.94,898.68,-2.32,2.68,-7.38,-29.96,-10.11,34.73,2025-03-12T10:13:42.057757,932.37,-254.64,-101.81,-5.55,-43.11,4.94,-123.92,-9.12,23.33,2025-03-12T10:13:42.057757,-0.8397212258200717
396.48,-279.05,886.72,2.2,3.84,-11.65,-34.49,-9.75,35.75,2025-03-12T10:13:42.104634,922.85,-264.4,-223.88,-11.52,-43.48,7.62,-126.88,-8.4,23.3,2025-03-12T10:13:42.104634,-0.43729668770279595
393.55,-242.92,894.53,4.88,5.67,-11.22,-41.11,-8.84,36.62,2025-03-12T10:13:42.127046,956.54,-201.17,-243.9,-8.11,-44.21,5.06,-130.72,-7.25,23.81,2025-03-12T10:13:42.127046,-0.04418203463768533
385.25,-238.28,905.76,9.57,3.54,-12.38,-49.76,-6.85,37.88,2025-03-12T10:13:42.162849,967.77,-218.99,-272.95,-4.94,-43.9,3.17,-135.19,-6.24,24.27,2025-03-12T10:13:42.162849,0.3683443877730932
376.71,-205.32,906.01,8.48,-1.1,-11.71,-58.62,-5.39,39.82,2025-03-12T10:13:42.206822,968.99,-162.84,-260.01,-13.9,-43.17,3.66,-139.83,-5.39,24.85,2025-03-12T10:13:42.206822,0.8194759452871461
389.65,-235.84,892.58,7.93,-4.88,-12.13,-63.77,-5.15,42.61,2025-03-12T10:13:42.236920,917.72,-230.96,-211.67,-18.6,-46.28,2.8,-144.18,-5.7,24.6,2025-03-12T10:13:42.236920,1.3395236986474246
400.88,-237.55,900.39,8.9,-6.28,-14.82,-65.07,-3.25,43.33,2025-03-12T10:13:42.305362,971.68,-262.94,-337.4,-10.79,-50.55,1.83,-146.68,-4.96,25.39,2025-03-12T10:13:42.305362,1.9167633988171633
415.28,-231.69,899.66,11.83,-6.16,-23.23,-63.57,-2.16,43.02,2025-03-12T10:13:42.306290,922.36,-245.36,-347.41,-15.55,-48.66,2.26,-147.0,-2.42,27.46,2025-03-12T10:13:42.306290,2.4738758075406233
398.68,-114.75,932.86,11.65,-8.9,-28.48,-59.78,-1.98,42.61,2025-03-12T10:13:42.337917,979.25,-219.73,-343.02,-28.05,-51.28,3.54,-145.19,-1.04,28.39,2025-03-12T10:13:42.337917,3.0835097172625794
388.43,-122.8,955.81,12.74,-24.76,-24.39,-54.84,-2.8,41.65,2025-03-12T10:13:42.411468,1015.62,-169.92,-335.45,-24.39,-60.3,-3.17,-141.58,-1.79,27.71,2025-03-12T10:13:42.411468,3.9464495487952838
385.5,-118.9,941.16,8.41,-47.32,-15.73,-48.73,-4.94,39.79,2025-03-12T10:13:42.412265,970.7,-181.64,-332.28,-17.26,-70.0,-9.82,-136.59,-2.97,25.78,2025-03-12T10:13:42.412265,5.136992169360936
438.23,-151.61,944.58,12.32,-71.34,-9.27,-42.15,-6.9,37.24,2025-03-12T10:13:42.443446,1000.24,-228.76,-338.87,-6.83,-83.84,-15.49,-130.55,-3.2,23.62,2025-03-12T10:13:42.443446,6.710485711420326
570.07,-260.01,918.46,19.57,-106.46,-11.34,-35.09,-8.32,34.4,2025-03-12T10:13:42.513152,1201.9,-158.94,-437.26,3.41,-101.83,-22.13,-123.99,-2.21,22.56,2025-03-12T10:13:42.513152,8.820014944041748
492.19,-200.93,948.24,16.83,-165.3,-33.48,-28.35,-9.53,31.39,2025-03-12T10:13:42.516041,1206.05,-88.38,-194.09,-37.38,-122.87,-10.43,-117.5,-1.66,21.27,2025-03-12T10:13:42.516041,11.714739574973354
650.15,-344.24,1029.05,46.71,-232.13,-58.54,-22.75,-10.77,28.85,2025-03-12T10:13:42.551723,1282.71,-190.67,-181.64,-35.49,-141.04,-9.63,-111.24,-1.65,19.89,2025-03-12T10:13:42.551723,15.451895995145007
915.28,-154.54,880.86,49.27,-258.17,-73.6,-17.8,-12.39,27.19,2025-03-12T10:13:42.617022,1092.29,-286.87,-518.55,-22.13,-144.45,-5.55,-105.05,-1.99,19.18,2025-03-12T10:13:42.617022,19.470022388890666
1119.87,-834.96,1634.28,-29.82,-215.67,-55.43,-12.63,-14.24,25.59,2025-03-12T10:13:42.624597,749.02,-267.33,-914.31,31.22,-120.91,-10.06,-98.95,-2.52,19.28,2025-03-12T10:13:42.624597,22.83474677602713
16.6,-472.41,1208.5,-5.85,-32.07,0.91,-8.87,-15.81,24.4,2025-03-12T10:13:42.660851,786.38,72.75,-501.46,-37.87,-62.13,2.07,-93.02,-3.19,18.33,2025-03-12T10:13:42.660851,23.774834564383873
-13.18,-278.32,978.03,-7.38,51.65,8.54,-6.23,-18.16,23.46,2025-03-12T10:13:42.716591,578.12,-125.73,-448.73,-62.13,6.28,7.62,-87.9,-3.8,17.86,2025-03-12T10:13:42.716591,23.191553745368054
40.53,-316.65,854.0,-4.63,118.78,28.6,-2.37,-20.22,22.49,2025-03-12T10:13:42.730641,585.45,-100.34,-465.58,-44.39,68.05,2.99,-84.0,-4.56,18.02,2025-03-12T10:13:42.730641,21.33457064373161
125.24,-295.65,820.07,-8.11,144.63,65.91,-0.92,-21.79,23.39,2025-03-12T10:13:42.763355,654.05,-91.8,-555.18,12.38,112.99,-6.16,-81.77,-5.42,18.72,2025-03-12T10:13:42.763355,18.792637776959076
357.67,-116.7,942.87,-14.63,171.95,86.04,3.08,-22.13,-2.34,2025-03-12T10:13:42.819047,683.84,-66.65,-599.12,72.13,151.1,-15.3,-82.04,-6.3,19.99,2025-03-12T10:13:42.819047,15.61366639442313
574.46,-84.23,1101.07,-17.8,198.66,78.29,-6.91,-20.76,25.83,2025-03-12T10:13:42.833241,821.29,59.81,-695.8,75.67,182.56,-26.65,-84.55,-6.52,19.19,2025-03-12T10:13:42.833241,11.858844375613351
820.31,-215.33,1130.13,-10.06,209.33,69.21,-11.79,-19.56,26.61,2025-03-12T10:13:42.867781,976.07,38.82,-664.79,-20.67,210.67,-31.4,-86.64,-6.84,18.5,2025-03-12T10:13:42.867781,7.716619599995171
936.52,-312.99,1030.52,-26.95,184.82,67.07,-14.95,-17.63,27.92,2025-03-12T10:13:42.923219,897.22,-163.09,-577.15,-25.18,206.71,-17.8,-89.0,-6.7,16.2,2025-03-12T10:13:42.923219,3.8437904595188956
879.39,-260.25,1070.56,-39.09,178.29,51.22,-17.18,-14.96,27.78,2025-03-12T10:13:42.938639,954.83,-131.35,-660.16,25.24,207.38,3.29,-91.76,-6.91,14.9,2025-03-12T10:13:42.938639,0.004710617447973853
761.47,-297.61,916.99,-46.22,145.3,65.12,-18.49,-11.82,27.65,2025-03-12T10:13:42.973801,931.64,-4.39,-489.99,11.34,203.05,6.28,-94.02,-7.63,14.33,2025-03-12T10:13:42.973801,-3.4697890442568515
792.48,-191.41,889.4,-46.77,103.23,59.82,-19.6,-10.51,27.71,2025-03-12T10:13:43.024903,1015.62,-101.81,-363.04,22.62,192.13,10.91,-95.59,-8.44,12.71,2025-03-12T10:13:43.024903,-6.4233921671481085
1092.29,-169.19,1095.46,-73.17,103.17,62.2,-20.09,-10.47,27.85,2025-03-12T10:13:43.044988,905.52,-49.8,-393.55,37.01,167.44,13.9,-97.55,-9.12,14.13,2025-03-12T10:13:43.044988,-9.139573799558097
1014.4,290.77,598.88,-58.29,88.17,17.13,-20.11,-10.54,28.01,2025-03-12T10:13:43.080085,843.75,7.08,-236.08,11.95,116.83,11.28,-99.14,-9.65,13.62,2025-03-12T10:13:43.080085,-11.189419592094435
1089.84,230.47,299.07,-30.37,30.18,-37.13,-20.02,-10.49,28.23,2025-03-12T10:13:43.127824,728.52,-59.81,-183.59,-25.79,52.01,17.07,-100.51,-10.04,13.98,2025-03-12T10:13:43.127824,-11.996087833431597
1118.16,-278.81,399.17,25.55,-14.27,-9.45,-19.98,-10.5,28.5,2025-03-12T10:13:43.150988,752.69,-253.91,-250.98,-19.51,-24.82,9.63,-101.99,-10.27,15.03,2025-03-12T10:13:43.150988,-11.599947403108484
856.93,-229.49,341.55,38.72,-87.07,8.96,-19.94,-10.37,28.84,2025-03-12T10:13:43.187910,856.69,-312.26,-317.63,55.79,-72.07,-3.41,-103.52,-10.41,15.38,2025-03-12T10:13:43.187910,-10.001869682416938
-21.0,-240.97,883.54,20.85,-208.72,-37.68,-19.84,-10.1,29.19,2025-03-12T10:13:43.231913,1718.02,316.89,203.37,32.56,-96.77,18.84,-105.09,-10.64,15.63,2025-03-12T10:13:43.231913,-6.945609021250142
774.17,234.38,978.52,31.22,-86.28,-43.9,-19.77,-9.72,29.5,2025-03-12T10:13:43.260751,1043.95,-267.33,-387.45,11.4,-79.51,3.6,-106.72,-10.69,16.05,2025-03-12T10:13:43.260751,-5.268541723324453
562.74,-654.05,831.05,46.04,-64.76,-37.01,-19.82,-9.3,29.81,2025-03-12T10:13:43.335666,890.38,-9.52,-194.82,24.33,-75.49,15.61,-108.24,-10.78,16.18,2025-03-12T10:13:43.335666,-3.8607061137522654
445.56,-323.49,1042.48,91.65,-42.44,-21.52,-20.04,-8.95,30.1,2025-03-12T10:13:43.336418,1016.85,-405.27,-287.6,-8.96,-76.95,23.23,-109.85,-10.69,16.83,2025-03-12T10:13:43.336418,-2.672497064743206
525.88,-61.77,1047.12,31.83,-42.2,-4.7,-20.33,-8.53,30.47,2025-03-12T10:13:43.364936,1046.39,74.95,-268.31,62.26,-50.79,15.06,-111.58,-10.6,17.47,2025-03-12T10:13:43.364936,-1.742381900854004
424.07,-272.46,925.05,-15.24,-17.2,1.46,-20.66,-7.97,31.02,2025-03-12T10:13:43.442242,963.62,-157.47,-251.95,-49.39,-50.67,26.1,-113.37,-10.54,17.84,2025-03-12T10:13:43.442242,-1.0715891396335846
409.18,-253.17,884.28,-6.71,0.73,0.06,-21.07,-7.27,31.8,2025-03-12T10:13:43.442449,962.16,-454.83,-237.55,4.27,-47.32,13.9,-115.17,-10.39,18.52,2025-03-12T10:13:43.442449,-0.6065301651711734
410.16,-231.45,893.31,-4.76,4.82,-2.87,-21.84,-6.51,32.48,2025-03-12T10:13:43.533447,943.12,-88.13,-238.77,17.44,-35.06,12.01,-117.14,-10.04,19.38,2025-03-12T10:13:43.533447,-0.3022888788268454
381.84,-208.5,897.46,-1.77,2.8,-2.8,-23.31,-5.98,32.95,2025-03-12T10:13:43.537738,963.13,-243.9,-99.37,-45.85,-35.12,14.82,-119.35,-9.53,19.98,2025-03-12T10:13:43.537738,0.020275992184380698
433.11,-248.05,880.37,-3.96,3.05,-6.22,-25.59,-5.43,33.11,2025-03-12T10:13:43.539064,938.72,-290.28,-155.27,2.07,-37.87,7.2,-121.87,-8.93,20.19,2025-03-12T10:13:43.539064,0.3728731853537717
392.09,-260.74,896.73,2.74,4.88,-9.15,-28.97,-4.67,33.18,2025-03-12T10:13:43.572867,881.35,-185.79,-166.99,-23.23,-40.79,9.94,-124.86,-8.33,20.08,2025-03-12T10:13:43.572867,0.7341287431383874
401.86,-256.84,905.27,4.7,3.96,-12.62,-34.16,-3.77,33.8,2025-03-12T10:13:43.639083,986.57,-300.78,-226.56,-10.49,-46.04,7.8,-128.54,-7.72,19.84,2025-03-12T10:13:43.639083,1.1582788496573744
385.74,-209.23,898.93,5.0,1.46,-13.35,-41.76,-1.73,34.39,2025-03-12T10:13:43.652395,898.19,-130.86,-319.34,-13.96,-45.18,7.99,-133.14,-6.48,20.72,2025-03-12T10:13:43.652395,1.5987568119858593
397.95,-240.72,899.17,4.15,-4.27,-12.13,-50.58,1.62,34.68,2025-03-12T10:13:43.677423,960.21,-283.45,-306.88,-15.73,-49.45,5.24,-138.14,-5.44,21.33,2025-03-12T10:13:43.677423,2.140653309463333
395.02,-221.19,903.08,3.66,-11.46,-15.85,-59.01,3.61,36.05,2025-03-12T10:13:43.742859,911.62,-169.43,-381.1,-8.35,-47.62,5.49,-143.07,-5.12,21.3,2025-03-12T10:13:43.742859,2.7360726957974393
420.65,-260.01,892.09,0.24,-18.9,-20.79,-62.36,4.14,36.44,2025-03-12T10:13:43.747334,941.41,-289.31,-396.24,-29.63,-46.28,5.79,-146.85,-5.64,20.57,2025-03-12T10:13:43.747334,3.39178055611161
429.2,-208.5,904.05,-1.52,-24.21,-27.44,-62.46,3.84,36.61,2025-03-12T10:13:43.782561,932.13,-238.28,-368.41,-29.27,-50.12,6.59,-148.33,-4.33,21.6,2025-03-12T10:13:43.782561,4.138127343879914
425.78,-215.33,926.27,-4.21,-39.57,-28.96,-59.84,3.28,36.79,2025-03-12T10:13:43.844656,955.81,-172.85,-349.61,-37.5,-56.52,5.24,-147.7,-2.77,22.85,2025-03-12T10:13:43.844656,5.102734025771064
472.66,-134.77,921.88,-4.76,-61.83,-22.07,-55.53,2.09,36.24,2025-03-12T10:13:43.852358,1008.3,-180.18,-350.1,-32.5,-68.72,-1.46,-144.97,-1.91,23.43,2025-03-12T10:13:43.852358,6.418023078954562
516.85,-241.21,983.64,-2.62,-93.6,-17.5,-50.14,-0.15,34.92,2025-03-12T10:13:43.898313,1025.63,-415.04,-290.77,-30.85,-88.41,-8.17,-140.59,-2.44,22.64,2025-03-12T10:13:43.898313,8.253142360560403
455.32,-269.29,894.04,-2.07,-157.93,-35.67,-43.81,-2.7,33.33,2025-03-12T10:13:43.950013,1358.64,-115.97,-228.76,-2.44,-124.63,-3.17,-134.89,-4.08,20.26,2025-03-12T10:13:43.950013,11.086611503448466
667.97,-301.76,977.54,1.95,-253.9,-57.8,-36.63,-4.86,31.66,2025-03-12T10:13:43.960443,1282.47,1.95,-258.79,-36.34,-138.84,-5.91,-128.07,-4.62,18.17,2025-03-12T10:13:43.960443,15.024958529179575
891.11,-294.19,740.97,-22.13,-276.59,-51.71,-29.35,-6.44,29.87,2025-03-12T10:13:43.996015,1162.6,-90.82,-435.79,-14.94,-129.09,-12.62,-120.68,-3.14,18.52,2025-03-12T10:13:43.996015,19.1016002987073
1058.11,-851.07,1856.93,-8.48,-236.77,-49.02,-22.84,-8.42,28.36,2025-03-12T10:13:44.054375,781.01,-286.87,-908.45,2.74,-99.7,-21.4,-109.84,-2.81,18.37,2025-03-12T10:13:44.054375,22.49870054542872
90.33,-79.35,1516.6,28.17,-59.82,-25.91,-16.55,-10.39,27.01,2025-03-12T10:13:44.066876,737.79,48.34,-488.28,-20.3,-47.68,-4.45,-102.7,-3.2,17.77,2025-03-12T10:13:44.066876,23.577619744889716
33.69,-434.33,876.95,37.44,69.57,-49.45,-11.44,-12.53,25.13,2025-03-12T10:13:44.102714,660.16,-45.9,-426.51,-73.41,23.05,1.65,-95.99,-3.61,17.33,2025-03-12T10:13:44.102714,22.655440251265944
113.53,-504.88,794.92,18.48,103.48,-16.83,-7.63,-14.69,23.36,2025-03-12T10:13:44.151655,684.57,-278.81,-506.35,-55.12,70.49,-12.5,-89.9,-4.13,16.06,2025-03-12T10:13:44.151655,20.94586079191029
219.24,-427.25,768.55,15.67,131.28,32.26,-3.49,-17.27,21.65,2025-03-12T10:13:44.174016,688.72,-246.58,-525.15,28.72,105.49,-13.11,-85.36,-4.51,15.3,2025-03-12T10:13:44.174016,18.61874526234318
394.04,-328.61,862.79,10.37,154.7,62.93,-0.89,-19.21,21.72,2025-03-12T10:13:44.207637,782.71,-68.36,-619.38,81.16,137.07,-23.23,-82.96,-5.09,15.75,2025-03-12T10:13:44.207637,15.761694786570427
557.37,-290.28,1005.86,4.7,174.76,72.32,-0.64,-19.84,22.98,2025-03-12T10:13:44.253432,899.17,24.41,-658.94,34.21,169.82,-30.61,-83.23,-5.66,16.63,2025-03-12T10:13:44.253432,12.385997525358848
695.07,-314.7,1023.44,-1.89,193.11,65.85,-2.2,-18.67,23.16,2025-03-12T10:13:44.278115,947.27,-72.02,-657.23,-32.2,197.99,-19.51,-85.45,-5.61,15.3,2025-03-12T10:13:44.278115,8.532069283779576
819.34,-334.47,1031.01,-21.71,185.0,53.23,-6.34,-18.17,23.3,2025-03-12T10:13:44.352653,929.69,-141.36,-568.85,-20.24,198.78,-0.91,-88.65,-5.97,13.65,2025-03-12T10:13:44.352653,4.726812531393579
780.27,-270.26,1040.28,-39.94,177.8,42.8,-12.03,-17.33,24.05,2025-03-12T10:13:44.354390,945.8,-30.27,-613.53,7.01,200.18,15.55,-90.98,-6.43,13.22,2025-03-12T10:13:44.354390,0.9558182869037868
691.65,-243.65,958.01,-52.38,168.29,36.77,-15.44,-16.18,25.57,2025-03-12T10:13:44.385441,933.59,-3.17,-503.17,-10.79,203.6,23.84,-93.77,-6.77,12.19,2025-03-12T10:13:44.385441,-2.767590052961012
814.21,-279.79,1086.91,-64.51,140.79,46.65,-17.83,-14.03,25.92,2025-03-12T10:13:44.455402,928.71,-112.3,-453.37,7.87,195.43,23.41,-96.68,-7.7,12.74,2025-03-12T10:13:44.455402,-6.139557254864911
910.16,-168.46,900.63,-59.94,126.77,56.28,-19.12,-11.24,25.71,2025-03-12T10:13:44.459824,980.22,-16.6,-380.86,34.94,170.37,18.84,-98.48,-8.46,10.77,2025-03-12T10:13:44.459824,-9.123839763645154
1028.81,142.58,666.02,-72.01,73.23,17.01,-20.44,-10.49,25.6,2025-03-12T10:13:44.487859,849.61,7.81,-372.31,10.79,131.16,19.7,-100.38,-9.07,11.82,2025-03-12T10:13:44.487859,-11.176360622652203
1314.7,130.62,549.07,-57.5,41.71,-14.76,-20.88,-10.95,25.74,2025-03-12T10:13:44.561054,695.8,-111.57,-304.69,-31.52,65.67,21.77,-102.26,-9.58,12.57,2025-03-12T10:13:44.561054,-12.253200214753605
1223.63,30.27,77.88,4.45,-9.39,-23.11,-20.86,-11.13,25.83,2025-03-12T10:13:44.561830,796.88,-249.27,-311.04,-10.73,-20.55,14.02,-103.42,-10.14,11.73,2025-03-12T10:13:44.561830,-11.950079138045718
1183.84,-246.34,211.91,37.32,-108.41,11.22,-20.76,-11.22,25.98,2025-03-12T10:13:44.659221,891.85,-208.98,-187.01,51.16,-84.88,1.65,-104.88,-10.3,13.13,2025-03-12T10:13:44.659221,-10.021623362970082
-845.21,-394.78,1769.78,44.15,-172.26,-35.91,-20.69,-11.33,26.24,2025-03-12T10:13:44.663673,1846.68,200.68,425.78,17.01,-54.7,17.01,-106.2,-10.55,13.53,2025-03-12T10:13:44.663673,-7.761618001750169
823.0,434.81,507.08,42.44,-94.88,-64.51,-20.63,-11.22,26.51,2025-03-12T10:13:44.664429,607.91,-93.26,-311.52,84.21,-89.39,-7.5,-107.65,-10.72,13.99,2025-03-12T10:13:44.664429,-5.882910400131548
165.53,-732.18,995.12,58.05,-70.3,-42.8,-20.56,-10.98,26.85,2025-03-12T10:13:44.762852,891.6,-371.34,-261.47,18.54,-71.04,15.67,-109.34,-10.86,14.8,2025-03-12T10:13:44.762852,-4.4700411233224315
740.48,-593.02,1167.48,107.62,-65.91,-4.82,-20.58,-10.68,27.23,2025-03-12T10:13:44.767713,1130.62,-345.95,-174.07,16.77,-66.16,18.9,-110.95,-11.03,15.08,2025-03-12T10:13:44.767713,-3.160003223172582
521.73,-227.29,1066.89,17.99,-30.67,-9.15,-20.76,-10.42,27.59,2025-03-12T10:13:44.773345,1029.3,90.33,-221.68,-11.59,-44.57,21.28,-112.8,-10.99,15.86,2025-03-12T10:13:44.773345,-2.4188185291752404
436.04,-220.21,994.63,-10.06,-21.71,-4.76,-21.19,-10.15,28.04,2025-03-12T10:13:44.897284,971.92,-312.01,-91.55,-57.68,-48.96,24.15,-114.5,-11.08,16.11,2025-03-12T10:13:44.897284,-1.7286009278679044
455.32,-288.57,871.58,-8.35,-5.98,-0.37,-21.92,-9.9,28.64,2025-03-12T10:13:44.897830,956.05,-294.43,-253.91,51.71,-41.65,4.27,-116.32,-10.91,16.99,2025-03-12T10:13:44.897830,-1.2485150221274288
409.67,-220.95,896.73,-1.52,-0.37,-2.01,-22.88,-9.62,29.51,2025-03-12T10:13:44.898209,917.97,-67.14,-207.52,-34.27,-29.76,15.61,-118.18,-10.69,17.98,2025-03-12T10:13:44.898209,-0.9536055599489638
392.09,-275.63,880.37,-3.48,2.44,-3.23,-24.28,-9.36,30.51,2025-03-12T10:13:44.913019,1032.23,-363.04,-73.24,-21.22,-32.8,12.32,-120.19,-10.24,19.24,2025-03-12T10:13:44.913019,-0.6545520861463994
410.4,-276.37,875.0,-1.52,6.65,-5.79,-26.36,-9.17,31.35,2025-03-12T10:13:45.069821,955.57,-210.94,-173.83,8.41,-31.28,4.09,-122.57,-9.61,20.31,2025-03-12T10:13:45.069821,-0.40366874725837154
410.64,-265.14,871.09,1.1,8.72,-7.93,-29.36,-9.07,32.02,2025-03-12T10:13:45.070630,939.45,-220.95,-201.17,-20.49,-28.84,8.72,-125.55,-8.8,21.13,2025-03-12T10:13:45.070630,-0.2026709722679061
385.74,-288.82,881.1,2.62,10.49,-9.57,-34.33,-8.52,32.86,2025-03-12T10:13:45.071247,963.87,-247.56,-152.34,-16.71,-32.5,5.49,-129.54,-8.42,20.93,2025-03-12T10:13:45.071247,0.020065090434901123
386.72,-262.45,886.23,4.27,10.55,-10.12,-42.67,-7.54,34.41,2025-03-12T10:13:45.097579,949.22,-278.08,-188.96,0.18,-34.76,2.56,-134.14,-7.9,21.31,2025-03-12T10:13:45.097579,0.2678992327356853
376.22,-246.83,892.09,5.61,7.8,-9.21,-52.41,-6.12,36.0,2025-03-12T10:13:45.098275,949.46,-185.06,-228.52,-2.44,-36.59,1.52,-139.02,-6.64,22.17,2025-03-12T10:13:45.098275,0.5626395716069137
384.28,-251.95,892.33,3.35,2.32,-7.07,-61.87,-4.76,37.33,2025-03-12T10:13:45.205443,967.29,-233.4,-208.98,-9.7,-42.93,1.22,-143.31,-5.67,22.31,2025-03-12T10:13:45.205443,0.9752357798744282
379.39,-247.31,893.8,2.26,-0.49,-8.11,-64.8,-4.44,38.04,2025-03-12T10:13:45.206276,930.42,-210.21,-247.07,-4.33,-46.22,0.61,-146.38,-5.61,21.56,2025-03-12T10:13:45.206276,1.4492630379813933
384.28,-237.06,899.41,-0.49,-3.41,-10.06,-63.24,-2.31,37.74,2025-03-12T10:13:45.206823,928.47,-201.66,-280.03,-17.26,-51.59,2.99,-147.33,-4.56,22.2,2025-03-12T10:13:45.206823,2.0030221706187366
375.24,-271.48,913.57,1.71,-7.32,-9.45,-59.73,-1.2,37.41,2025-03-12T10:13:45.228045,952.64,-281.74,-262.21,-19.02,-57.87,-0.37,-146.22,-2.35,23.59,2025-03-12T10:13:45.228045,2.6616426265571267
415.04,-246.09,898.19,2.56,-15.0,-14.63,-55.25,-1.73,36.64,2025-03-12T10:13:45.277710,916.99,-237.3,-338.38,-14.09,-61.52,-2.07,-143.46,-1.09,23.89,2025-03-12T10:13:45.277710,3.4356052981942935
417.72,-269.04,917.97,2.56,-27.44,-20.55,-49.88,-3.19,35.13,2025-03-12T10:13:45.297926,982.67,-256.84,-309.57,-22.26,-69.15,-2.87,-139.38,-2.06,22.45,2025-03-12T10:13:45.297926,4.410488540744957
394.04,-209.96,972.66,5.12,-52.8,-29.51,-43.76,-4.94,33.26,2025-03-12T10:13:45.333943,1043.46,-269.04,-333.01,-26.77,-81.83,-2.26,-134.13,-3.38,19.93,2025-03-12T10:13:45.333943,5.763898537952471
379.15,-196.04,1030.27,8.9,-102.74,-33.66,-37.0,-6.47,31.44,2025-03-12T10:13:45.380246,1318.12,-124.76,-389.65,-6.1,-97.99,-11.22,-127.83,-3.0,18.87,2025-03-12T10:13:45.380246,7.788538338918017
458.98,-159.91,973.14,-6.71,-160.55,-37.07,-30.28,-8.11,30.11,2025-03-12T10:13:45.405174,1212.4,-19.04,-328.86,-23.35,-109.76,-14.7,-120.88,-1.9,19.57,2025-03-12T10:13:45.405174,10.512772570108144
515.87,-187.5,979.0,8.35,-275.61,-34.15,-23.85,-9.87,29.23,2025-03-12T10:13:45.478248,1288.57,24.41,-273.93,-21.28,-124.02,-18.84,-113.95,-1.8,20.01,2025-03-12T10:13:45.478248,14.533951464442062
817.14,-377.2,832.52,8.78,-317.93,-45.61,-17.76,-11.98,28.65,2025-03-12T10:13:45.478418,1146.73,45.65,-199.71,-63.72,-137.74,-17.93,-106.88,-2.48,20.08,2025-03-12T10:13:45.478418,19.11129028342299
1018.07,-521.0,1231.2,12.68,-304.51,-44.88,-12.45,-14.47,27.72,2025-03-12T10:13:45.512956,694.34,-288.57,-783.45,-77.2,-95.55,-39.39,-99.91,-3.18,20.63,2025-03-12T10:13:45.512956,23.169922041904297
121.83,-632.08,1256.1,-39.82,25.12,16.83,-7.15,-16.89,26.05,2025-03-12T10:13:45.586344,582.76,-320.31,-505.37,22.38,-66.89,-28.41,-93.37,-4.04,20.13,2025-03-12T10:13:45.586344,23.629377220632136
60.3,-290.28,902.34,33.11,98.96,-31.4,-2.8,-19.21,24.52,2025-03-12T10:13:45.586528,678.71,-52.0,-448.97,49.57,-8.48,3.11,-87.8,-4.66,19.04,2025-03-12T10:13:45.586528,22.72180635356925
136.47,-555.42,723.63,21.46,143.23,-21.83,-0.54,-21.67,24.35,2025-03-12T10:13:45.717306,629.15,-5.62,-515.62,-31.52,68.48,-13.6,-83.8,-5.37,19.08,2025-03-12T10:13:45.717306,20.638697538221226
257.32,-431.15,759.28,4.57,146.83,47.74,0.59,-23.09,25.0,2025-03-12T10:13:45.718260,642.58,-234.86,-574.95,-27.32,122.13,-13.78,-82.42,-6.26,20.17,2025-03-12T10:13:45.718260,17.9983125685239
467.53,-257.57,831.3,-3.96,180.91,72.32,-0.79,-22.55,25.54,2025-03-12T10:13:45.718825,729.74,-148.93,-607.42,25.98,153.48,-20.55,-83.8,-6.67,20.0,2025-03-12T10:13:45.718825,14.722419696929006
718.51,-399.17,908.69,-5.49,210.0,45.12,-6.12,-21.63,25.7,2025-03-12T10:13:45.722728,276.37,-489.99,-296.88,40.55,206.59,25.73,-87.17,-6.88,19.17,2025-03-12T10:13:45.722728,10.552333956261672
791.02,-358.64,883.79,-24.39,208.17,58.35,-10.62,-20.44,26.55,2025-03-12T10:13:45.790085,1137.7,273.19,-651.37,-53.23,181.22,-32.13,-89.2,-7.15,18.6,2025-03-12T10:13:45.790085,6.741617261741834
862.3,-144.78,993.9,-39.76,153.9,44.82,-14.32,-18.79,28.53,2025-03-12T10:13:45.794844,918.21,-313.23,-478.52,-53.96,192.87,22.8,-92.09,-7.04,15.99,2025-03-12T10:13:45.794844,3.2723639184878
712.4,-183.35,854.0,-45.85,134.39,15.61,,,,2025-03-12T10:13:45.830517,1026.86,54.93,-554.69,20.0,185.61,17.07,-94.48,-7.76,15.76,2025-03-12T10:13:45.830517,0.07948895487082686
829.1,-284.42,806.4,-64.39,84.27,22.87,-18.9,-13.09,28.61,2025-03-12T10:13:45.895607,897.46,4.15,-531.25,-33.29,185.12,31.83,-96.39,-8.53,14.59,2025-03-12T10:13:45.895607,-2.634544872983489
1189.45,-340.33,1109.86,-46.77,118.54,65.98,-20.02,-12.74,28.76,2025-03-12T10:13:45.900837,907.23,-148.93,-484.86,10.3,159.39,30.98,-98.15,-9.09,16.01,2025-03-12T10:13:45.900837,-5.450578179652003
956.05,81.79,591.31,-30.0,71.59,56.16,-20.88,-13.31,29.11,2025-03-12T10:13:45.947414,953.61,-23.44,-392.09,44.88,129.7,18.78,-99.95,-9.66,17.03,2025-03-12T10:13:45.947414,-7.4844933733218655
1123.78,83.98,460.69,0.61,17.44,33.96,-20.99,-13.37,29.21,2025-03-12T10:13:45.997168,814.45,2.69,-298.83,41.4,72.32,-3.11,-101.09,-10.12,15.6,2025-03-12T10:13:45.997168,-8.36952388544809
1157.47,92.29,399.41,34.33,-17.68,17.2,-20.98,-13.44,29.34,2025-03-12T10:13:46.004924,821.29,-49.56,-251.95,37.32,6.52,-2.26,-102.4,-10.35,17.17,2025-03-12T10:13:46.004924,-8.248323189133522
942.63,-9.28,332.28,51.04,-84.39,-7.56,-20.85,-13.48,29.55,2025-03-12T10:13:46.039755,836.18,-184.81,-290.28,57.99,-51.77,-12.74,-103.58,-10.64,17.52,2025-03-12T10:13:46.039755,-6.861115468580714
-6.84,-541.5,971.68,9.21,-112.74,-29.51,-20.65,-13.37,29.8,2025-03-12T10:13:46.098609,1164.06,-114.75,152.1,23.84,-74.51,3.6,-104.64,-10.84,17.51,2025-03-12T10:13:46.098609,-4.987721246286485
406.98,-533.2,977.29,13.11,-95.79,9.57,-20.39,-13.21,30.09,2025-03-12T10:13:46.109777,1301.27,-194.82,-3.17,27.62,-18.96,15.06,-105.8,-10.94,18.31,2025-03-12T10:13:46.109777,-3.853656412559524
704.1,119.87,1504.39,77.87,-34.45,-30.06,-20.11,-13.01,30.39,2025-03-12T10:13:46.145664,826.9,-29.3,-144.53,82.2,-53.6,7.13,-106.96,-11.0,18.82,2025-03-12T10:13:46.145664,-2.970781487608042
514.4,-480.22,775.15,64.02,-81.22,16.22,-19.89,-12.75,30.65,2025-03-12T10:13:46.202440,1144.78,-90.33,-332.52,28.78,-49.15,0.73,-108.12,-11.12,18.74,2025-03-12T10:13:46.202440,-1.6606804382690132
450.44,47.12,1078.86,21.04,-33.96,-6.46,-19.82,-12.5,30.86,2025-03-12T10:13:46.215619,1070.31,-92.04,-127.2,76.95,-41.4,1.1,-109.47,-11.11,18.98,2025-03-12T10:13:46.215619,-0.8994257765283784
468.75,-290.04,971.44,13.78,-5.12,-7.68,-19.89,-12.33,31.09,2025-03-12T10:13:46.253028,974.12,-127.93,-192.63,4.57,-22.68,11.04,-110.98,-11.08,19.18,2025-03-12T10:13:46.253028,-0.6230355521186731
453.37,-187.01,924.32,9.45,6.71,-5.85,-20.08,-12.22,31.42,2025-03-12T10:13:46.301586,1003.17,-271.73,-94.73,5.0,-18.29,5.06,-112.64,-11.04,19.4,2025-03-12T10:13:46.301586,-0.5026770455375733
395.75,-200.93,910.4,8.96,7.56,-5.37,-20.38,-12.06,31.72,2025-03-12T10:13:46.321116,1004.88,-7.32,-122.8,30.79,-18.05,2.32,-114.57,-10.84,20.09,2025-03-12T10:13:46.321116,-0.3905596329433688
371.83,-205.81,919.43,5.85,5.67,-6.04,-20.94,-11.84,32.16,2025-03-12T10:13:46.355784,981.69,-235.84,-36.13,-21.59,-14.76,-4.33,-116.64,-10.6,20.61,2025-03-12T10:13:46.355784,-0.28684835648855245
401.37,-231.45,901.86,11.04,7.5,-7.44,-21.91,-11.56,32.74,2025-03-12T10:13:46.407583,1043.7,-74.95,-165.77,2.99,-16.77,-7.87,-118.88,-10.27,21.09,2025-03-12T10:13:46.407583,-0.17841924954317478
398.68,-207.52,909.67,7.13,7.93,-8.84,-23.62,-11.08,33.6,2025-03-12T10:13:46.425489,1023.93,-135.25,-238.28,-6.52,-9.15,-6.22,-121.38,-9.82,21.73,2025-03-12T10:13:46.425489,-0.15196265110081486
366.46,-188.48,916.75,6.89,7.99,-8.29,-26.92,-10.36,34.45,2025-03-12T10:13:46.502978,1012.7,-90.09,-98.88,-30.43,-2.5,-1.52,-124.55,-9.22,22.28,2025-03-12T10:13:46.502978,-0.1964780251377225
378.17,-126.46,914.55,-0.79,3.41,-4.51,-32.18,-9.83,35.65,2025-03-12T10:13:46.504807,979.49,-86.67,-187.99,-3.11,2.13,-6.16,-128.05,-8.65,22.35,2025-03-12T10:13:46.504807,-0.23570130681332335
373.54,-207.28,910.64,0.06,4.76,-5.98,-40.72,-8.93,36.46,2025-03-12T10:13:46.531473,987.55,-169.68,-16.85,-28.35,-0.12,-1.65,-132.12,-7.73,22.61,2025-03-12T10:13:46.531473,-0.27109406236044464
368.9,-203.37,927.25,3.23,4.39,-7.13,-51.74,-7.75,37.34,2025-03-12T10:13:46.565124,995.36,-57.62,-82.52,-2.44,-4.02,-6.46,-136.6,-6.7,22.74,2025-03-12T10:13:46.565124,-0.25922295737198287
355.96,-111.08,897.46,-1.04,3.6,-4.63,-62.71,-6.01,37.63,2025-03-12T10:13:46.609744,945.31,-41.26,-94.73,-11.04,-3.9,-5.43,-141.22,-4.34,23.78,2025-03-12T10:13:46.609744,-0.24067401398294375
397.46,-193.36,910.16,0.67,2.44,-4.57,-65.77,-6.5,39.08,2025-03-12T10:13:46.638032,1009.77,-106.93,-123.78,-6.95,-6.1,-6.59,-144.11,-2.31,23.59,2025-03-12T10:13:46.638032,-0.1876801169478255
363.28,-173.58,922.61,0.3,1.34,-5.0,-63.27,-5.08,37.69,2025-03-12T10:13:46.708130,1014.89,-108.15,-67.87,-5.73,-5.73,-5.3,-145.84,-2.82,22.49,2025-03-12T10:13:46.708130,-0.12874005381149622
376.46,-214.6,903.32,2.93,3.35,-5.55,-58.19,-3.98,37.54,2025-03-12T10:13:46.714493,1014.65,-191.89,-126.46,-2.32,-10.98,-8.23,-145.44,-3.7,21.77,2025-03-12T10:13:46.714493,-0.03493293505547812
393.55,-136.47,913.09,1.34,1.46,-4.57,-52.87,-4.67,36.66,2025-03-12T10:13:46.740016,1005.13,20.51,-221.44,-18.72,-4.88,-5.79,-142.51,-2.33,22.18,2025-03-12T10:13:46.740016,0.015350189299346395
365.48,-154.05,919.92,-2.26,-2.62,-0.61,-46.68,-6.76,35.14,2025-03-12T10:13:46.818228,991.7,-71.78,-135.01,-6.28,-1.71,-8.23,-137.91,-1.65,22.11,2025-03-12T10:13:46.818228,0.07841222787408508
381.84,-193.12,905.03,2.93,2.87,-3.9,-39.41,-8.14,33.93,2025-03-12T10:13:46.819143,971.68,-129.39,-122.8,-9.63,-0.61,-7.87,-132.11,-1.94,20.99,2025-03-12T10:13:46.819143,0.07446220305007678
359.13,-179.44,914.06,3.96,3.05,-3.23,-31.79,-9.66,32.72,2025-03-12T10:13:46.845592,1004.39,-62.5,-51.51,-6.52,-5.91,-9.76,-125.47,-3.27,19.42,2025-03-12T10:13:46.845592,0.12379756509056894
357.67,-153.81,914.06,0.0,-0.43,-0.37,-25.59,-12.23,31.35,2025-03-12T10:13:46.915169,998.78,-12.21,-129.88,-2.62,-8.17,-9.27,-118.79,-1.24,21.49,2025-03-12T10:13:46.915169,0.23065759338459957
366.94,-183.11,917.72,0.85,0.55,-0.61,-20.12,-13.93,30.74,2025-03-12T10:13:46.915367,981.69,-51.76,-155.27,0.85,-8.66,-7.26,-112.22,-1.54,22.53,2025-03-12T10:13:46.915367,0.33011250909943146
382.32,-138.67,911.62,-0.49,1.28,-0.3,-15.96,-15.65,30.87,2025-03-12T10:13:47.071959,998.78,-9.28,-216.8,-14.15,-3.66,-4.7,-105.75,-2.35,22.5,2025-03-12T10:13:47.071959,0.3700637966284519
362.06,-162.11,926.51,-0.24,1.1,-0.37,-12.57,-18.27,30.2,2025-03-12T10:13:47.072162,1011.47,2.44,-118.65,-13.9,-2.62,-3.17,-99.57,-3.22,23.75,2025-03-12T10:13:47.072162,0.399624639636609
383.54,-145.02,905.52,-1.22,2.38,0.12,-8.07,-19.97,28.09,2025-03-12T10:13:47.072297,954.83,-40.28,-189.7,-4.94,2.26,-5.24,-94.4,-4.28,23.27,2025-03-12T10:13:47.072297,0.37067224259630005
352.29,-189.7,934.81,1.89,5.12,-1.16,-5.5,-21.04,26.37,2025-03-12T10:13:47.072406,1025.39,-72.75,-69.58,-4.94,-2.32,-3.84,-90.55,-4.76,21.45,2025-03-12T10:13:47.072406,0.357569870310364
383.06,-161.38,906.74,1.34,5.73,-0.79,-4.74,-20.83,25.19,2025-03-12T10:13:47.118914,965.58,-1.95,-158.2,-0.85,-2.01,-5.73,-88.39,-4.69,20.03,2025-03-12T10:13:47.118914,0.3379117295937244
352.54,-155.03,925.05,1.4,3.96,-1.52,-5.91,-19.24,24.7,2025-03-12T10:13:47.127091,1007.32,23.44,-133.3,-2.62,-0.91,-2.99,-88.56,-4.46,18.61,2025-03-12T10:13:47.127091,0.32153892726679234
346.92,-156.49,928.22,-1.95,1.83,-0.67,-9.36,-17.9,25.02,2025-03-12T10:13:47.160841,991.94,26.12,-149.66,-1.34,-0.55,-2.32,-90.6,-4.08,16.44,2025-03-12T10:13:47.160841,0.3222554649193652
359.38,-159.18,915.77,-3.17,0.18,-0.3,-12.82,-17.37,25.58,2025-03-12T10:13:47.227610,995.12,-23.19,-182.62,-12.5,3.78,0.73,-92.63,-4.42,16.01,2025-03-12T10:13:47.227610,0.29289149785749236
352.05,-158.69,928.71,-1.95,2.38,-1.46,-16.44,-16.17,25.4,2025-03-12T10:13:47.230322,1002.93,7.08,-162.84,-2.38,4.33,1.4,-93.48,-4.92,14.37,2025-03-12T10:13:47.230322,0.23499130384196443
355.22,-165.77,923.83,-4.63,0.79,0.06,-17.74,-13.5,25.52,2025-03-12T10:13:47.266366,991.21,-10.25,-129.88,-5.12,3.96,0.73,-95.34,-5.32,12.01,2025-03-12T10:13:47.266366,0.19777949404452477
352.05,-182.13,916.99,-4.51,0.85,-0.55,-19.71,-12.09,24.48,2025-03-12T10:13:47.325743,990.72,-9.03,-146.73,-9.57,4.51,1.83,-96.85,-5.48,10.93,2025-03-12T10:13:47.325743,0.15291436690504656
350.1,-173.34,927.49,-2.07,-0.24,0.18,-20.79,-11.49,24.43,2025-03-12T10:13:47.337601,1003.42,-38.57,-131.35,-1.77,4.09,1.71,-97.85,-5.89,8.72,2025-03-12T10:13:47.337601,0.12343672192547328
359.86,-169.68,926.03,-2.5,0.0,0.3,-20.88,-10.96,24.52,2025-03-12T10:13:47.370962,991.21,1.22,-170.9,-1.4,6.65,2.26,-98.6,-6.27,8.9,2025-03-12T10:13:47.370962,0.06554318222949163
356.2,-167.72,918.21,-3.05,-0.55,0.61,-20.62,-10.54,24.59,2025-03-12T10:13:47.426947,985.84,-25.63,-117.19,-8.72,7.07,3.29,-99.19,-6.49,8.26,2025-03-12T10:13:47.426947,0.0077116638864092035
363.53,-167.24,919.19,-3.35,-1.16,0.49,-20.41,-10.2,24.66,2025-03-12T10:13:47.440151,986.57,-10.01,-149.9,-3.9,8.05,2.99,-99.88,-6.41,8.09,2025-03-12T10:13:47.440151,-0.053378670832474384
358.4,-186.04,916.99,-1.46,-0.91,-0.06,-20.26,-9.92,24.8,2025-03-12T10:13:47.474834,994.14,-74.95,-113.28,-12.26,8.17,3.23,-100.36,-6.3,8.32,2025-03-12T10:13:47.474834,-0.11872680050151141
343.02,-166.5,931.64,-1.77,-1.59,0.49,-20.04,-9.52,24.94,2025-03-12T10:13:47.531481,1005.13,3.42,-118.16,-6.59,8.29,2.99,-100.79,-6.05,8.39,2025-03-12T10:13:47.531481,-0.1780031682480534
340.82,-183.84,917.48,-2.13,-1.59,0.12,-19.8,-9.19,25.15,2025-03-12T10:13:47.543994,987.79,-50.78,-69.58,-10.61,8.05,3.41,-101.02,-5.77,8.71,2025-03-12T10:13:47.543994,-0.23566560201286513
348.14,-187.01,915.28,-1.83,-1.1,0.55,-19.64,-8.95,25.33,2025-03-12T10:13:47.580383,1000.24,-64.7,-46.88,-4.09,4.94,3.05,-101.12,-5.48,9.46,2025-03-12T10:13:47.580383,-0.2668847757726449
368.41,-190.67,913.33,-0.61,-0.55,0.12,-19.57,-8.94,25.5,2025-03-12T10:13:47.631021,990.97,-45.9,-81.54,3.48,2.32,2.07,-101.1,-5.2,9.75,2025-03-12T10:13:47.631021,-0.27634831639703306
357.67,-182.37,920.41,0.73,0.12,0.06,-19.45,-8.85,25.7,2025-03-12T10:13:47.647365,996.83,-67.38,-92.04,4.51,1.95,1.22,-101.13,-5.0,10.42,2025-03-12T10:13:47.647365,-0.28769826644525787
355.71,-184.81,920.17,0.06,-0.55,0.3,-19.36,-8.71,25.91,2025-03-12T10:13:47.682774,997.31,-27.1,-102.29,1.28,1.28,1.22,-101.22,-4.77,10.59,2025-03-12T10:13:47.682774,-0.28567203224546156
346.19,-194.82,922.12,-0.3,-0.43,0.3,-19.3,-8.7,26.07,2025-03-12T10:13:47.738554,1002.44,-35.16,-103.76,2.44,2.38,2.13,-101.38,-4.54,10.86,2025-03-12T10:13:47.738554,-0.29704398908742546
359.86,-186.52,913.57,-0.55,-0.91,0.67,-19.27,-8.61,26.22,2025-03-12T10:13:47.752083,998.54,-39.79,-116.21,2.56,3.05,2.01,-101.57,-4.28,11.12,2025-03-12T10:13:47.752083,-0.3099461352178434
360.6,-192.38,916.5,0.67,-0.18,0.06,-19.26,-8.56,26.36,2025-03-12T10:13:47.787503,988.53,-49.8,-76.9,-2.93,3.72,2.07,-101.74,-4.02,11.29,2025-03-12T10:13:47.787503,-0.33699548999450357
350.34,-174.8,924.07,-0.3,-0.79,0.43,-19.19,-8.39,26.54,2025-03-12T10:13:47.838029,995.85,-54.44,-56.88,0.67,2.56,1.28,-102.04,-3.73,11.3,2025-03-12T10:13:47.838029,-0.3452782583856633
351.81,-175.54,917.72,1.04,0.12,0.0,-19.22,-8.36,26.64,2025-03-12T10:13:47.857769,1001.71,-21.73,-63.48,4.02,0.18,0.73,-102.22,-3.35,11.87,2025-03-12T10:13:47.857769,-0.33839552816041074
354.49,-184.57,917.72,-0.18,-0.18,0.0,-19.29,-8.38,26.69,2025-03-12T10:13:47.893162,1001.22,-36.62,-93.99,1.46,0.91,0.85,-102.25,-3.02,12.08,2025-03-12T10:13:47.893162,-0.33595191568044513
351.56,-182.86,922.85,0.18,-0.37,-0.12,-19.22,-8.24,26.79,2025-03-12T10:13:47.939990,994.14,-41.5,-91.8,0.3,1.59,0.67,-102.3,-2.67,12.39,2025-03-12T10:13:47.939990,-0.338129968091863
352.05,-186.28,914.31,-0.67,-0.49,0.37,-19.16,-8.11,26.84,2025-03-12T10:13:47.963532,1000.24,-49.07,-92.04,0.24,2.01,0.85,-102.46,-2.3,12.41,2025-03-12T10:13:47.963532,-0.3434529271754949
364.26,-187.74,911.38,0.12,-0.49,0.12,-19.2,-8.11,26.84,2025-03-12T10:13:47.996598,991.94,-60.3,-82.03,1.95,2.01,0.98,-102.73,-1.95,12.49,2025-03-12T10:13:47.996598,-0.348960779629943
355.71,-181.4,916.99,0.67,-0.24,0.06,-19.21,-8.09,26.85,2025-03-12T10:13:48.047251,993.41,-68.12,-77.88,-0.18,1.83,0.18,-102.98,-1.72,12.41,2025-03-12T10:13:48.047251,-0.35413333902906097
349.85,-174.8,916.99,0.43,-0.61,0.49,-19.18,-8.1,26.88,2025-03-12T10:13:48.072052,1002.69,-25.63,-59.08,-0.3,1.4,0.67,-103.08,-1.44,12.9,2025-03-12T10:13:48.072052,-0.35188770553908333
357.67,-186.77,915.28,0.12,-0.67,0.0,-19.16,-8.12,26.89,2025-03-12T10:13:48.101860,1000.98,-68.6,-75.93,6.1,0.61,0.18,-103.11,-1.23,13.23,2025-03-12T10:13:48.101860,-0.3407006092530209
361.57,-187.99,917.48,0.37,-0.12,-0.12,-19.07,-8.14,26.91,2025-03-12T10:13:48.145125,993.65,-72.75,-63.96,-1.28,0.49,0.06,-103.04,-1.0,13.51,2025-03-12T10:13:48.145125,-0.3336817634474889
359.62,-196.53,913.09,0.3,-0.37,0.06,-18.91,-8.08,26.93,2025-03-12T10:13:48.174805,991.94,-49.32,-62.74,1.04,-0.98,-0.61,-103.05,-0.86,13.42,2025-03-12T10:13:48.174805,-0.3087297375572018
365.97,-167.24,916.02,1.83,0.55,-0.67,-18.73,-8.02,26.95,2025-03-12T10:13:48.243874,997.07,-26.61,-88.87,7.01,-0.85,-1.1,-103.1,-0.68,13.45,2025-03-12T10:13:48.243874,-0.29356575677405106
353.27,-186.52,919.43,0.79,0.79,-0.49,-18.64,-8.0,26.98,2025-03-12T10:13:48.246175,991.21,-33.94,-64.94,-2.26,0.24,-0.91,-103.09,-0.53,13.51,2025-03-12T10:13:48.246175,-0.29197361103921904
353.27,-185.06,917.72,0.61,0.61,-0.49,-18.61,-8.07,27.04,2025-03-12T10:13:48.277060,994.14,-49.8,-54.44,0.24,0.12,-1.46,-103.04,-0.46,13.59,2025-03-12T10:13:48.277060,-0.2866732660239162
352.05,-182.13,913.82,0.67,0.61,-0.12,-18.61,-8.17,27.09,2025-03-12T10:13:48.349262,996.34,-43.21,-72.75,0.67,-0.55,-1.71,-102.89,-0.4,13.95,2025-03-12T10:13:48.349262,-0.2743337921414599
358.15,-174.07,921.14,0.67,0.61,-0.43,-18.57,-8.25,27.15,2025-03-12T10:13:48.350079,995.61,-42.24,-79.83,1.28,0.0,-1.65,-102.73,-0.39,14.15,2025-03-12T10:13:48.350079,-0.2675170800185571
351.32,-180.18,915.28,0.98,0.73,-0.79,-18.58,-8.43,27.21,2025-03-12T10:13:48.383386,998.29,-53.96,-73.49,2.68,-0.12,-1.83,-102.55,-0.38,14.31,2025-03-12T10:13:48.383386,-0.2605984330458093
355.71,-179.93,914.55,0.18,0.43,-0.49,-18.57,-8.57,27.27,2025-03-12T10:13:48.451403,1000.24,-35.64,-98.39,0.98,-0.06,-1.1,-102.37,-0.39,14.68,2025-03-12T10:13:48.451403,-0.25215482134369593
360.11,-176.03,918.95,0.24,0.67,-0.43,-18.6,-8.66,27.29,2025-03-12T10:13:48.451755,996.83,-46.14,-65.43,0.18,-0.49,-1.34,-102.21,-0.44,14.72,2025-03-12T10:13:48.451755,-0.2414976442742509
354.25,-177.49,924.8,0.61,0.61,-0.49,-18.62,-8.75,27.32,2025-03-12T10:13:48.486214,994.87,-33.94,-74.95,-0.98,-0.18,-1.1,-101.96,-0.49,14.91,2025-03-12T10:13:48.486214,-0.23365381601437085
361.33,-185.06,921.14,0.43,0.73,-0.67,-18.67,-8.88,27.34,2025-03-12T10:13:48.554029,1001.46,-56.15,-60.79,1.52,-0.55,-1.89,-101.68,-0.57,15.15,2025-03-12T10:13:48.554029,-0.22238120884533363
349.61,-184.08,918.21,0.43,0.85,-0.55,-18.74,-9.0,27.37,2025-03-12T10:13:48.556120,995.85,-23.68,-70.07,-0.91,-0.79,-1.59,-101.36,-0.63,15.43,2025-03-12T10:13:48.556120,-0.2103164564718234
353.76,-184.81,915.77,0.06,0.67,-0.79,-18.8,-9.04,27.39,2025-03-12T10:13:48.591360,996.09,-48.58,-73.24,-0.85,-0.61,-1.22,-101.03,-0.7,15.75,2025-03-12T10:13:48.591360,-0.19874870849673387
348.39,-173.34,923.58,0.18,0.43,-0.73,-18.88,-9.13,27.4,2025-03-12T10:13:48.661364,996.09,-28.08,-78.37,0.18,-0.79,-1.65,-100.72,-0.74,16.1,2025-03-12T10:13:48.661364,-0.18237710514194805
351.81,-171.14,923.34,-0.12,0.79,-0.91,-18.94,-9.21,27.42,2025-03-12T10:13:48.665525,999.51,-52.98,-72.27,-1.28,-1.4,-1.4,-100.42,-0.81,16.47,2025-03-12T10:13:48.665525,-0.16389117298116473
355.71,-174.32,920.41,0.12,1.04,-1.1,-18.98,-9.28,27.43,2025-03-12T10:13:48.696430,1008.3,-24.66,-84.23,-0.49,-1.1,-1.52,-100.24,-0.91,16.54,2025-03-12T10:13:48.696430,-0.15075153451960088
350.34,-180.91,921.14,0.0,0.37,-0.61,-19.01,-9.31,27.43,2025-03-12T10:13:48.759189,995.85,-50.05,-67.63,-1.95,-1.1,-1.52,-100.12,-0.99,16.54,2025-03-12T10:13:48.759189,-0.13088871128536095
358.15,-175.54,924.56,0.24,0.37,-1.22,-19.03,-9.29,27.42,2025-03-12T10:13:48.766803,1002.93,-19.04,-82.28,-0.73,-0.85,-1.16,-100.03,-1.06,16.4,2025-03-12T10:13:48.766803,-0.11400634421357769
348.88,-176.03,927.73,0.67,0.61,-0.85,-19.05,-9.3,27.41,2025-03-12T10:13:48.801446,995.85,-40.77,-81.05,-2.93,-0.61,-1.22,-99.95,-1.13,16.39,2025-03-12T10:13:48.801446,-0.10179694135074979
356.2,-180.42,922.12,0.12,0.18,-0.91,-19.09,-9.33,27.41,2025-03-12T10:13:48.864012,992.68,-32.96,-85.94,-0.73,-0.61,-1.59,-99.83,-1.22,16.33,2025-03-12T10:13:48.864012,-0.08481399213643193
354.74,-177.73,915.77,0.12,0.49,-0.43,-19.13,-9.34,27.4,2025-03-12T10:13:48.871420,998.54,-33.94,-76.42,-2.01,-0.18,-1.28,-99.7,-1.3,16.31,2025-03-12T10:13:48.871420,-0.07550651393198793
347.9,-172.61,922.85,0.43,0.18,-0.67,-19.15,-9.34,27.4,2025-03-12T10:13:48.906874,999.27,-18.55,-92.04,-2.38,0.12,-1.22,-99.53,-1.37,16.39,2025-03-12T10:13:48.906874,-0.06617395531462589
349.85,-179.69,926.51,-0.37,0.12,-0.67,-19.18,-9.36,27.38,2025-03-12T10:13:48.962633,990.48,-30.03,-71.78,-5.37,0.79,-0.98,-99.42,-1.44,16.32,2025-03-12T10:13:48.962633,-0.06322673220138775
347.66,-178.22,917.24,-0.06,0.18,-0.73,-19.19,-9.35,27.38,2025-03-12T10:13:48.977138,1007.81,-26.61,-66.41,-3.54,0.61,-0.43,-99.34,-1.51,16.2,2025-03-12T10:13:48.977138,-0.05982000328085357
342.04,-189.21,917.24,-0.79,0.18,-0.73,-19.22,-9.36,27.38,2025-03-12T10:13:49.011912,998.54,-45.65,-58.84,-3.17,-0.18,-0.61,-99.28,-1.56,16.14,2025-03-12T10:13:49.011912,-0.04842586125493753
352.54,-171.63,925.05,-0.12,0.18,-0.61,-19.25,-9.37,27.38,2025-03-12T10:13:49.070631,998.54,-13.92,-98.39,-1.4,0.12,-0.61,-99.19,-1.6,16.12,2025-03-12T10:13:49.070631,-0.03984433964851242
349.37,-169.43,922.85,-0.06,0.24,-0.91,-19.27,-9.39,27.38,2025-03-12T10:13:49.082006,999.76,-33.2,-73.97,-4.09,0.98,-0.18,-99.1,-1.64,16.14,2025-03-12T10:13:49.082006,-0.041003792809696904
345.7,-172.36,930.91,-0.73,-0.24,-0.55,-19.3,-9.4,27.38,2025-03-12T10:13:49.116794,996.09,-19.78,-70.56,-4.57,0.43,0.3,-99.0,-1.67,16.11,2025-03-12T10:13:49.116794,-0.03252383952085536
347.41,-170.65,924.32,-0.85,-0.37,-0.3,-19.31,-9.39,27.37,2025-03-12T10:13:49.169610,997.07,-36.38,-72.02,-2.99,-0.12,0.3,-98.91,-1.68,16.11,2025-03-12T10:13:49.169610,-0.017245417645958883
347.17,-184.08,919.43,-0.67,-0.06,-0.73,-19.35,-9.4,27.36,2025-03-12T10:13:49.186703,1004.88,-32.23,-77.39,-2.01,-0.18,0.49,-98.83,-1.7,16.13,2025-03-12T10:13:49.186703,-0.004870664388555435
352.05,-165.04,917.24,-0.49,-0.37,-0.73,-19.38,-9.4,27.36,2025-03-12T10:13:49.221232,997.07,-24.41,-87.4,-1.4,-0.18,0.67,-98.79,-1.73,16.01,2025-03-12T10:13:49.221232,0.010480721510090607
347.17,-174.56,919.92,-0.85,-0.3,-0.43,-19.39,-9.38,27.36,2025-03-12T10:13:49.274079,1009.77,-21.97,-83.74,-2.74,0.85,1.16,-98.75,-1.74,15.98,2025-03-12T10:13:49.274079,0.01423872218457145
347.17,-183.11,921.14,-1.59,-0.85,-0.12,-19.41,-9.37,27.36,2025-03-12T10:13:49.294343,1007.32,-56.88,-69.34,-2.5,0.49,0.91,-98.74,-1.73,15.92,2025-03-12T10:13:49.294343,0.027388204307230657
351.56,-190.43,925.29,-1.52,-0.43,0.06,-19.39,-9.31,27.36,2025-03-12T10:13:49.326467,997.8,-28.81,-74.71,-2.2,0.91,0.91,-98.71,-1.72,15.77,2025-03-12T10:13:49.326467,0.032181454154490696
346.19,-182.37,919.19,-0.67,-0.67,0.06,-19.38,-9.28,27.36,2025-03-12T10:13:49.375856,999.76,-47.36,-59.08,-0.91,0.43,0.43,-98.67,-1.69,15.81,2025-03-12T10:13:49.375856,0.044812473968234956
346.68,-182.62,921.39,-0.18,-0.06,-0.06,-19.37,-9.27,27.38,2025-03-12T10:13:49.396202,995.85,-22.46,-82.03,1.1,-0.06,0.3,-98.63,-1.66,15.76,2025-03-12T10:13:49.396202,0.05636563571667419
343.75,-176.03,919.43,0.24,-0.49,-0.06,-19.37,-9.25,27.38,2025-03-12T10:13:49.431168,1002.2,-38.82,-54.44,-2.99,0.37,0.49,-98.62,-1.62,15.73,2025-03-12T10:13:49.431168,0.06772350307524189
350.1,-184.33,922.61,0.0,-0.12,0.18,-19.36,-9.23,27.39,2025-03-12T10:13:49.480101,996.34,-24.17,-80.32,3.84,-0.79,-0.18,-98.61,-1.57,15.69,2025-03-12T10:13:49.480101,0.08780023140202964
344.48,-186.04,923.34,0.18,-0.06,-0.43,-19.34,-9.2,27.41,2025-03-12T10:13:49.505033,993.16,-32.71,-71.53,-0.43,0.06,0.0,-98.58,-1.54,15.58,2025-03-12T10:13:49.505033,0.09849700731049715
356.45,-185.55,926.03,0.12,-0.18,-0.12,-19.35,-9.2,27.42,2025-03-12T10:13:49.574808,996.83,-39.06,-92.29,2.2,0.06,-0.55,-98.56,-1.5,15.58,2025-03-12T10:13:49.574808,0.11122689909571726
356.2,-184.81,920.17,0.3,0.12,-0.18,-19.34,-9.19,27.44,2025-03-12T10:13:49.576854,994.38,-33.94,-86.43,-0.79,1.89,0.12,-98.54,-1.46,15.57,2025-03-12T10:13:49.576854,0.10190800386408783
348.63,-171.63,917.72,0.37,0.67,-0.43,-19.33,-9.18,27.45,2025-03-12T10:13:49.608628,998.29,-46.39,-97.66,-2.56,3.05,0.3,-98.51,-1.42,15.63,2025-03-12T10:13:49.608628,0.07536571734124786
354.0,-196.78,912.11,0.06,0.79,-0.37,-19.33,-9.16,27.47,2025-03-12T10:13:49.677857,998.78,-53.71,-59.33,-7.62,3.66,-0.18,-98.51,-1.38,15.54,2025-03-12T10:13:49.677857,0.04212768158705238
354.98,-184.81,922.36,0.98,2.26,-1.1,-19.31,-9.15,27.49,2025-03-12T10:13:49.678842,1001.46,-30.52,-48.83,-2.62,3.23,-0.49,-98.5,-1.32,15.6,2025-03-12T10:13:49.678842,-0.001136308664219765
335.45,-166.26,930.66,0.18,1.1,-0.24,-19.31,-9.14,27.51,2025-03-12T10:13:49.710606,1004.64,29.79,-23.93,-1.46,1.89,0.55,-98.5,-1.28,15.61,2025-03-12T10:13:49.710606,-0.02080899405153991
339.84,-171.88,934.08,-1.4,-0.43,0.24,-19.31,-9.14,27.54,2025-03-12T10:13:49.785468,996.83,-21.0,-21.73,2.38,-1.59,1.71,-98.5,-1.22,15.62,2025-03-12T10:13:49.785468,0.007708720792334756
343.99,-173.1,922.85,-2.62,-1.28,0.3,-19.29,-9.14,27.57,2025-03-12T10:13:49.786156,998.54,9.03,-35.16,2.01,-3.17,3.66,-98.52,-1.18,15.61,2025-03-12T10:13:49.786156,0.057685870785189275
344.73,-175.54,922.12,-5.06,-2.87,1.65,-19.28,-9.13,27.61,2025-03-12T10:13:49.814021,992.68,1.95,-58.59,0.91,-5.98,5.98,-98.52,-1.14,15.64,2025-03-12T10:13:49.814021,0.1483398075188782
343.26,-178.96,927.0,-6.46,-4.02,1.77,-19.28,-9.13,27.64,2025-03-12T10:13:49.889215,1001.46,-4.64,-70.8,2.38,-5.49,8.41,-98.53,-1.09,15.64,2025-03-12T10:13:49.889215,0.2422688260039143
352.29,-192.87,922.36,-7.56,-4.94,1.89,-19.29,-9.11,27.67,2025-03-12T10:13:49.889822,1004.88,-36.13,-75.93,1.28,-6.46,9.88,-98.53,-1.05,15.71,2025-03-12T10:13:49.889822,0.3529347952238986
356.2,-198.49,919.19,-7.2,-4.33,1.77,-19.28,-9.1,27.68,2025-03-12T10:13:49.917882,988.28,-54.69,-82.03,0.12,-5.73,10.55,-98.53,-1.01,15.77,2025-03-12T10:13:49.917882,0.4492957108582929
351.56,-208.74,901.61,-11.04,10.85,11.89,-19.29,-9.09,27.71,2025-03-12T10:13:49.989393,993.9,-81.05,-85.94,-2.68,-5.49,10.73,-98.52,-0.95,15.81,2025-03-12T10:13:49.989393,0.3918336020230715
356.2,-206.05,915.77,-6.77,-3.35,0.85,-19.29,-9.08,27.73,2025-03-12T10:13:49.990009,1000.49,-66.65,-116.46,-2.01,-4.02,10.43,-98.49,-0.91,15.86,2025-03-12T10:13:49.990009,0.4614035002829162
363.53,-210.69,914.06,-7.44,-3.48,0.49,-19.3,-9.07,27.76,2025-03-12T10:13:50.022214,998.29,-59.57,-109.38,-8.35,-0.85,11.34,-98.45,-0.87,15.96,2025-03-12T10:13:50.022214,0.49948602614425885
360.11,-215.58,907.47,-7.68,-3.84,1.1,-19.3,-9.08,27.79,2025-03-12T10:13:50.092574,988.53,-90.09,-111.57,-4.94,1.16,10.43,-98.38,-0.82,16.14,2025-03-12T10:13:50.092574,0.5223757666164813
362.3,-222.66,912.35,-7.07,-3.84,1.04,-19.31,-9.09,27.82,2025-03-12T10:13:50.093432,997.56,-73.0,-81.79,-7.26,1.04,11.28,-98.33,-0.79,16.27,2025-03-12T10:13:50.093432,0.5450999624196907
361.82,-218.51,901.12,-7.68,-3.72,2.07,-19.32,-9.12,27.85,2025-03-12T10:13:50.127338,1000.24,-120.85,-86.43,-4.09,2.8,10.37,-98.3,-0.79,16.29,2025-03-12T10:13:50.127338,0.5503792033241728
356.2,-228.27,905.03,-7.2,-3.66,1.71,-19.33,-9.13,27.88,2025-03-12T10:13:50.191935,989.5,-115.48,-38.57,-6.22,0.98,9.45,-98.26,-0.76,16.41,2025-03-12T10:13:50.191935,0.5742125522516845
366.7,-244.63,888.92,-7.13,-4.09,1.34,-19.34,-9.13,27.91,2025-03-12T10:13:50.196516,1003.66,-161.62,-43.7,3.41,-0.43,7.87,-98.2,-0.75,16.53,2025-03-12T10:13:50.196516,0.6184482707170796
369.87,-255.62,894.29,-5.37,-2.74,0.91,-19.35,-9.16,27.94,2025-03-12T10:13:50.232847,969.97,-152.34,-39.79,-2.2,-3.6,6.16,-98.16,-0.75,16.66,2025-03-12T10:13:50.232847,0.6829808670453484
362.55,-243.16,895.75,-1.95,-1.04,-1.04,-19.38,-9.2,27.97,2025-03-12T10:13:50.294179,992.92,-161.87,-45.65,-0.73,-6.22,4.21,-98.13,-0.76,16.75,2025-03-12T10:13:50.294179,0.7593531872538744
367.68,-227.05,906.74,-1.46,-0.49,-1.1,-19.39,-9.22,27.99,2025-03-12T10:13:50.301484,997.31,-124.02,-85.94,3.96,-7.93,2.74,-98.11,-0.77,16.83,2025-03-12T10:13:50.301484,0.8494288016279571
372.56,-234.86,896.97,-0.61,0.0,-1.4,-19.41,-9.25,28.02,2025-03-12T10:13:50.336923,979.74,-155.52,-81.54,0.61,-8.72,1.52,-98.09,-0.78,16.91,2025-03-12T10:13:50.336923,0.9441530026494038
382.08,-240.48,904.54,-0.37,0.91,-2.01,-19.44,-9.28,28.05,2025-03-12T10:13:50.396455,1000.98,-138.43,-125.73,4.33,-9.21,-0.3,-98.03,-0.81,17.04,2025-03-12T10:13:50.396455,1.0372974056130577
372.8,-234.38,901.37,1.16,1.28,-2.01,-19.49,-9.35,28.07,2025-03-12T10:13:50.407251,988.53,-113.77,-131.1,-2.32,-6.95,-0.18,-97.98,-0.85,17.07,2025-03-12T10:13:50.407251,1.1042263993042012
376.22,-233.64,901.12,0.06,0.3,-1.59,-19.52,-9.39,28.08,2025-03-12T10:13:50.446992,987.55,-115.97,-163.09,1.16,-5.06,-1.1,-97.92,-0.87,17.18,2025-03-12T10:13:50.446992,1.163559935954681
365.72,-258.79,895.02,-0.12,0.12,-0.85,-19.55,-9.42,28.09,2025-03-12T10:13:50.507114,986.57,-105.96,-114.01,-5.06,-2.26,0.43,-97.87,-0.9,17.17,2025-03-12T10:13:50.507114,1.1945805137223986
373.05,-226.56,903.32,-0.06,0.12,-0.18,-19.57,-9.43,28.1,2025-03-12T10:13:50.512243,984.62,-119.38,-101.56,-1.71,-2.13,-1.04,-97.83,-0.92,17.18,2025-03-12T10:13:50.512243,1.2266050675220797
358.89,-235.84,899.17,0.12,0.37,-0.85,-19.59,-9.44,28.1,2025-03-12T10:13:50.548027,989.5,-121.34,-109.62,-1.71,-1.83,-1.1,-97.8,-0.93,17.19,2025-03-12T10:13:50.548027,1.2531792026572972
364.5,-241.46,902.83,0.55,0.06,-0.67,-19.6,-9.44,28.1,2025-03-12T10:13:50.606872,984.13,-105.47,-113.77,1.28,-2.74,-1.28,-97.8,-0.95,17.11,2025-03-12T10:13:50.606872,1.2921086250364338
372.31,-238.77,898.19,0.18,0.06,-0.79,-19.61,-9.43,28.11,2025-03-12T10:13:50.620124,986.57,-125.73,-117.68,-0.79,-1.4,-1.59,-97.76,-0.95,17.11,2025-03-12T10:13:50.620124,1.3182602821146245
362.55,-233.4,905.27,0.3,0.12,-0.73,-19.62,-9.44,28.11,2025-03-12T10:13:50.653345,992.43,-97.66,-114.75,-4.33,-0.55,-0.61,-97.73,-0.96,17.04,2025-03-12T10:13:50.653345,1.3340004169321664
373.54,-243.9,902.34,-0.24,-0.3,-0.85,-19.62,-9.42,28.12,2025-03-12T10:13:50.704957,979.0,-129.15,-143.55,-0.06,-0.67,-1.71,-97.64,-0.96,17.11,2025-03-12T10:13:50.704957,1.3566878629577865
372.8,-231.45,908.69,0.0,0.0,-0.98,-19.61,-9.42,28.13,2025-03-12T10:13:50.723228,988.77,-102.29,-113.77,-4.7,0.91,-0.49,-97.53,-0.97,17.22,2025-03-12T10:13:50.723228,1.3590699899654684
378.66,-240.23,900.39,-1.04,-0.37,0.06,-19.57,-9.41,28.15,2025-03-12T10:13:50.757260,980.96,-106.69,-130.62,0.06,0.24,-1.77,-97.37,-0.94,17.46,2025-03-12T10:13:50.757260,1.3735695394714558
