imu0_acc_x,imu0_acc_y,imu0_acc_z,imu0_gyro_x,imu0_gyro_y,imu0_gyro_z,imu0_roll,imu0_pitch,imu0_yaw,imu0_timestamp,imu1_acc_x,imu1_acc_y,imu1_acc_z,imu1_gyro_x,imu1_gyro_y,imu1_gyro_z,imu1_roll,imu1_pitch,imu1_yaw,imu1_timestamp
419.68,-255.62,944.34,-12.2,49.94,24.76,-37.45,-11.02,39.55,2025-02-10T14:50:43.205383,977.05,150.88,331.79,-15.3,67.44,4.57,-81.88,3.17,15.83,2025-02-10T14:50:43.205383
396.97,-213.87,857.67,-22.87,57.26,16.89,-37.43,-11.01,39.54,2025-02-10T14:50:43.300625,919.92,135.5,321.78,-20.0,67.2,11.16,-81.89,3.24,15.85,2025-02-10T14:50:43.300625
452.64,-192.14,757.57,-27.5,43.78,4.33,-37.39,-10.98,39.52,2025-02-10T14:50:43.396680,876.95,153.08,244.14,-32.74,42.13,8.9,-81.86,3.38,15.86,2025-02-10T14:50:43.396680
562.5,-196.53,625.49,-7.62,-1.4,-0.37,-37.36,-10.96,39.51,2025-02-10T14:50:43.495950,884.28,127.2,135.74,-15.43,-5.06,5.67,-81.81,3.54,15.92,2025-02-10T14:50:43.495950
296.39,-325.93,907.96,20.49,-95.3,18.48,-37.32,-10.9,39.51,2025-02-10T14:50:43.587619,1063.96,85.21,622.56,57.8,-41.71,1.52,-81.83,3.73,15.97,2025-02-10T14:50:43.587619
687.99,-293.7,872.56,11.59,-64.57,-31.34,-37.31,-10.85,39.54,2025-02-10T14:50:43.681088,964.6,138.92,219.48,-23.54,-82.2,4.76,-82.17,3.91,15.95,2025-02-10T14:50:43.681088
639.16,-193.6,897.46,22.38,-14.88,-19.63,-37.28,-10.9,39.58,2025-02-10T14:50:43.788068,953.12,141.11,241.46,20.61,-40.0,18.23,-82.46,4.23,15.81,2025-02-10T14:50:43.788068
602.54,-157.96,822.02,7.62,-8.78,-10.0,-37.24,-10.93,39.58,2025-02-10T14:50:43.867929,1024.17,31.74,100.59,3.41,-39.88,13.78,-82.12,5.01,15.68,2025-02-10T14:50:43.867929
591.8,-159.67,809.08,0.24,-8.48,-3.23,-37.09,-11.5,40.01,2025-02-10T14:50:43.964745,975.59,18.07,88.38,-2.74,-40.06,7.2,-81.41,7.0,15.49,2025-02-10T14:50:43.964745
615.97,-150.39,779.3,5.0,-2.62,-6.65,-37.37,-11.6,40.42,2025-02-10T14:50:44.048083,1010.74,-1.46,-30.52,-7.32,-41.22,1.4,-83.91,8.99,15.23,2025-02-10T14:50:44.048083
601.32,-165.53,795.65,6.65,1.22,-7.5,-37.84,-9.56,38.61,2025-02-10T14:50:44.141923,1007.57,-8.79,-66.89,-11.89,-36.95,-2.93,-85.09,10.18,11.72,2025-02-10T14:50:44.141923
591.55,-151.12,812.99,6.1,-8.54,-12.68,-32.98,-10.15,36.49,2025-02-10T14:50:44.250162,1027.59,7.08,-34.67,-14.7,-43.35,-7.5,-80.28,10.24,11.52,2025-02-10T14:50:44.250162
632.57,-138.43,807.13,0.3,-49.63,-9.82,-28.06,-12.25,35.22,2025-02-10T14:50:44.335305,1037.84,49.8,-143.55,-27.2,-77.5,-22.26,-74.12,9.59,12.65,2025-02-10T14:50:44.335305
664.31,-110.84,842.77,-4.45,-122.62,-33.35,-22.17,-15.32,34.45,2025-02-10T14:50:44.449693,1160.89,166.75,23.19,-32.62,-58.11,-43.84,-67.05,7.84,14.27,2025-02-10T14:50:44.449693
1168.21,-246.58,846.44,-11.71,-184.39,-66.95,-18.27,-18.0,35.02,2025-02-10T14:50:44.526583,1277.83,141.11,-370.85,-35.73,-124.51,-34.7,-62.52,5.48,17.11,2025-02-10T14:50:44.526583
247.8,-398.93,842.29,35.98,-12.62,-12.07,-17.94,-19.24,35.71,2025-02-10T14:50:44.616691,979.25,-86.18,63.23,27.5,15.43,16.71,-63.04,4.49,17.71,2025-02-10T14:50:44.616691
358.89,-202.64,760.99,14.51,114.7,40.43,-26.27,-17.07,35.15,2025-02-10T14:50:44.708584,736.57,153.56,-37.6,-14.15,73.48,-0.06,-65.77,5.81,11.56,2025-02-10T14:50:44.708584
845.21,-276.37,895.51,26.52,179.51,72.87,-33.36,-14.7,37.21,2025-02-10T14:50:44.807230,1118.41,114.75,-92.04,13.17,190.61,4.88,-73.04,4.88,11.57,2025-02-10T14:50:44.807230
949.71,-277.59,924.56,-22.26,159.76,75.37,0.0,0.0,0.0,2025-02-10T14:50:44.906151,1261.47,195.8,-37.35,-12.56,197.56,25.98,-77.8,3.17,9.57,2025-02-10T14:50:44.906151
900.15,-93.75,798.1,-64.82,85.0,41.4,-36.89,-10.04,38.57,2025-02-10T14:50:45.006057,1203.61,311.77,-126.95,-84.88,113.72,22.38,-82.26,1.93,9.48,2025-02-10T14:50:45.006057
1035.4,-28.32,249.02,-38.41,47.99,-19.15,-37.72,-9.91,38.88,2025-02-10T14:50:45.087189,952.15,238.04,-327.15,-45.55,36.22,19.76,-86.71,1.1,9.9,2025-02-10T14:50:45.087189
516.36,-27.34,665.28,33.11,-134.82,-7.8,-38.18,-9.45,39.15,2025-02-10T14:50:45.189346,1034.91,481.45,-116.21,27.13,-80.91,-19.94,-90.29,0.87,10.55,2025-02-10T14:50:45.189346
967.77,-465.82,885.5,23.66,-60.67,-36.52,-38.22,-8.64,39.43,2025-02-10T14:50:45.276584,781.25,10.99,482.67,12.8,-101.04,18.11,-94.18,1.08,11.77,2025-02-10T14:50:45.276584
608.64,-168.21,800.29,14.63,-5.24,-15.73,-38.83,-7.7,39.92,2025-02-10T14:50:45.371010,959.96,77.15,277.1,35.98,-25.79,5.98,-98.0,1.91,13.04,2025-02-10T14:50:45.371010
567.87,-140.38,813.23,3.72,-8.35,-6.04,-42.46,-7.02,40.7,2025-02-10T14:50:45.467711,1014.16,31.49,105.71,-1.71,-51.34,-0.12,-104.23,4.09,14.72,2025-02-10T14:50:45.467711
588.87,-164.31,779.3,3.84,-7.07,-5.24,-53.04,-5.43,42.53,2025-02-10T14:50:45.557118,991.7,3.17,75.93,-2.44,-48.35,-1.4,-111.21,9.17,15.86,2025-02-10T14:50:45.557118
593.99,-138.67,805.91,6.59,-2.62,-7.5,-68.81,-1.05,45.65,2025-02-10T14:50:45.646286,1006.84,62.74,-29.79,-12.5,-47.87,-8.84,-121.84,12.58,15.83,2025-02-10T14:50:45.646286
578.37,-154.79,817.38,9.51,-3.9,-11.52,-76.06,1.49,47.82,2025-02-10T14:50:45.740312,999.76,-0.49,5.13,-6.04,-50.24,-7.32,-125.13,12.33,15.62,2025-02-10T14:50:45.740312
617.43,-122.8,850.34,8.66,-60.37,-18.84,-69.61,0.45,46.24,2025-02-10T14:50:45.830903,1074.22,78.86,-74.95,-28.05,-97.62,-33.41,-116.16,11.97,15.6,2025-02-10T14:50:45.830903
700.44,-69.58,895.75,-9.27,-159.76,-32.87,-51.98,-4.66,40.78,2025-02-10T14:50:45.932318,1233.15,299.32,22.95,-25.18,-100.0,-57.56,-100.46,10.94,14.57,2025-02-10T14:50:45.932318
1216.55,-174.07,804.69,-13.48,-232.32,-64.51,-36.25,-9.37,35.93,2025-02-10T14:50:46.022033,1230.96,276.86,-506.1,-55.73,-151.59,-44.82,-79.6,8.52,15.69,2025-02-10T14:50:46.022033
263.92,-487.3,745.12,67.74,29.7,-7.8,-23.29,-17.04,34.48,2025-02-10T14:50:46.120791,540.28,-64.7,69.09,50.49,89.88,33.17,-67.51,4.36,20.51,2025-02-10T14:50:46.120791
484.86,-179.69,845.21,20.12,146.22,47.68,-19.56,-20.46,36.6,2025-02-10T14:50:46.210916,805.18,183.11,-54.44,-5.67,104.94,15.12,-64.12,0.83,24.65,2025-02-10T14:50:46.210916
937.5,-252.69,909.91,3.72,213.54,77.13,-27.74,-17.52,37.79,2025-02-10T14:50:46.311323,1237.55,178.47,-91.55,-20.37,218.23,26.4,-67.11,2.74,20.09,2025-02-10T14:50:46.311323
1011.96,-286.38,886.96,-45.43,176.95,54.51,-35.27,-13.8,40.52,2025-02-10T14:50:46.402755,1304.69,245.85,-38.09,-49.51,195.37,43.78,-73.16,2.26,17.43,2025-02-10T14:50:46.402755
1485.6,127.2,702.64,-42.5,93.35,59.02,-36.11,-10.47,41.19,2025-02-10T14:50:46.496253,1060.55,392.09,-386.96,-59.15,76.59,28.84,-78.62,2.12,15.62,2025-02-10T14:50:46.496253
1156.98,229.49,-688.48,11.1,-136.1,-41.71,-36.94,-9.4,41.7,2025-02-10T14:50:46.591078,805.91,361.82,-708.98,23.9,-63.72,-18.9,-83.76,1.91,15.88,2025-02-10T14:50:46.591078
448.24,-230.71,970.46,22.5,-70.49,-54.7,-37.61,-9.02,41.95,2025-02-10T14:50:46.682531,1029.79,479.49,370.61,3.35,-132.99,-14.27,-89.02,2.06,16.4,2025-02-10T14:50:46.682531
624.76,-133.79,846.68,16.89,-13.41,-17.01,-37.96,-8.2,42.21,2025-02-10T14:50:46.776540,924.8,129.39,354.25,43.54,11.59,15.12,-93.23,2.74,17.21,2025-02-10T14:50:46.776540
582.03,-176.51,809.57,0.37,-10.98,-5.24,-38.6,-6.88,42.69,2025-02-10T14:50:46.868408,1012.94,73.24,83.01,0.3,-45.61,6.28,-97.73,3.57,17.83,2025-02-10T14:50:46.868408
617.68,-180.66,780.76,1.46,-10.55,-6.28,-42.86,-5.34,43.51,2025-02-10T14:50:46.961419,978.52,-20.26,79.1,-4.09,-56.65,-1.83,-106.88,7.49,19.86,2025-02-10T14:50:46.961419
608.15,-166.99,775.39,9.27,-7.38,-13.11,-55.09,-3.7,45.49,2025-02-10T14:50:47.061008,1023.93,38.82,-31.25,-13.96,-61.22,-8.9,-115.11,12.51,20.02,2025-02-10T14:50:47.061008
620.85,-128.42,811.77,7.62,-17.01,-13.48,-78.08,0.83,50.21,2025-02-10T14:50:47.166974,1020.75,80.08,-32.96,-19.45,-53.84,-11.1,-127.84,16.97,19.96,2025-02-10T14:50:47.166974
650.63,-79.83,807.62,6.1,-60.79,-13.66,-78.19,1.65,49.55,2025-02-10T14:50:47.252064,1064.7,137.94,-67.38,-17.44,-88.11,-32.87,-125.99,14.72,18.09,2025-02-10T14:50:47.252064
701.9,-165.28,790.28,-6.65,-115.55,-20.85,-66.75,-1.52,47.25,2025-02-10T14:50:47.349549,1272.95,184.33,-25.88,-38.96,-104.94,-57.32,-114.31,14.08,19.27,2025-02-10T14:50:47.349549
1381.1,-303.71,927.49,-4.09,-254.63,-77.68,-44.79,-7.62,42.18,2025-02-10T14:50:47.453787,1298.34,226.07,-413.33,-17.62,-154.21,-54.27,-90.93,11.67,21.9,2025-02-10T14:50:47.453787
72.27,-563.23,829.1,-1.16,21.83,5.67,-27.99,-13.08,39.36,2025-02-10T14:50:47.530818,1226.32,-353.52,64.7,27.99,-55.06,-5.43,-73.32,7.1,25.57,2025-02-10T14:50:47.530818
422.85,-69.09,775.15,17.74,172.2,41.83,-18.17,-19.49,35.97,2025-02-10T14:50:47.625573,637.94,197.75,125.98,-16.46,139.88,20.79,-63.97,1.94,28.21,2025-02-10T14:50:47.625573
1093.99,-294.92,894.29,22.56,229.09,87.8,-23.31,-18.8,37.96,2025-02-10T14:50:47.720344,1245.61,242.19,-195.56,-17.32,217.56,25.61,-68.98,3.57,26.29,2025-02-10T14:50:47.720344
1097.17,-348.63,816.16,-4.27,204.33,85.98,-33.17,-14.81,40.79,2025-02-10T14:50:47.816698,1371.58,176.03,-119.38,-17.8,219.45,51.77,-73.4,4.7,20.86,2025-02-10T14:50:47.816698
1163.33,-127.93,727.05,-76.59,137.5,34.39,-34.81,-10.96,41.8,2025-02-10T14:50:47.905174,1201.17,229.74,-229.25,-89.51,113.72,62.38,-79.12,3.85,18.47,2025-02-10T14:50:47.905174
987.06,242.68,-85.21,7.07,-42.99,-11.89,-35.93,-10.71,42.28,2025-02-10T14:50:47.999233,947.75,121.83,-406.49,-16.71,-28.48,6.83,-83.34,3.38,17.92,2025-02-10T14:50:47.999233
717.53,-241.21,833.74,62.38,-26.16,-74.57,-37.94,-9.17,43.31,2025-02-10T14:50:48.188036,903.81,-210.21,66.41,-41.46,-202.56,-8.23,-93.63,3.99,19.1,2025-02-10T14:50:48.188036
596.68,-147.71,814.21,15.18,-12.44,-19.21,-39.32,-7.8,43.85,2025-02-10T14:50:48.285928,998.05,110.35,266.85,70.49,-34.02,19.51,-98.29,5.11,20.43,2025-02-10T14:50:48.285928
595.46,-159.67,815.19,1.71,-8.41,-5.3,-43.77,-6.63,44.47,2025-02-10T14:50:48.379791,1011.47,33.45,131.35,-0.49,-33.78,-1.04,-106.94,8.4,21.27,2025-02-10T14:50:48.379791
594.48,-172.12,790.28,2.32,-6.52,-4.76,-55.92,-5.02,46.42,2025-02-10T14:50:48.476288,981.2,25.88,127.2,5.73,-35.67,-3.35,-116.2,13.56,21.71,2025-02-10T14:50:48.476288
588.62,-164.55,796.63,9.15,-8.6,-10.67,-75.97,0.61,49.52,2025-02-10T14:50:48.562497,1010.5,47.12,59.57,-4.57,-55.49,-11.95,-129.27,17.98,19.91,2025-02-10T14:50:48.562497
596.19,-121.34,581.3,4.82,-26.89,-8.84,-83.68,1.91,52.81,2025-02-10T14:50:48.654367,1019.04,94.48,17.82,-6.65,-61.77,-17.87,-131.13,16.55,18.58,2025-02-10T14:50:48.654367
701.66,-107.18,721.92,7.62,-51.22,-9.21,-73.58,-0.54,49.49,2025-02-10T14:50:48.755670,943.6,125.0,-179.93,-18.05,-63.17,-24.88,-119.54,16.06,20.18,2025-02-10T14:50:48.755670
730.47,-170.41,672.61,5.67,-43.29,-16.34,-50.08,-6.25,43.91,2025-02-10T14:50:48.846644,1066.65,45.65,-268.31,-33.84,-39.45,-26.71,-100.29,0.82,10.92,2025-02-10T14:50:48.846644
812.99,-104.49,621.58,8.41,-46.71,-41.16,-30.25,-11.13,37.95,2025-02-10T14:50:48.940222,978.27,215.33,-326.42,-40.49,-40.79,-23.54,-76.48,9.14,24.8,2025-02-10T14:50:48.940222
830.57,-23.93,482.67,-58.96,-34.7,-61.65,-13.56,-21.56,36.02,2025-02-10T14:50:49.037055,842.04,256.59,-384.77,-83.17,-36.71,4.51,-62.91,-0.11,30.6,2025-02-10T14:50:49.037055
845.95,31.49,460.45,-66.59,-5.55,-57.38,-12.99,-24.25,37.1,2025-02-10T14:50:49.139223,820.8,266.85,-389.65,-80.85,-18.48,12.8,-64.9,-1.27,31.26,2025-02-10T14:50:49.139223
886.47,57.62,469.73,-87.44,26.95,-59.21,-28.5,-18.23,37.93,2025-02-10T14:50:49.228318,819.58,359.62,-450.2,-106.65,6.89,26.89,-64.35,2.23,16.92,2025-02-10T14:50:49.228318
1052.0,81.54,435.3,-131.22,58.48,-73.84,-33.49,-12.39,41.08,2025-02-10T14:50:49.323583,913.57,376.71,-354.49,-141.59,-2.5,35.3,-77.47,2.03,19.72,2025-02-10T14:50:49.323583
868.16,183.59,632.08,-145.3,44.39,-101.65,-34.36,-10.06,41.82,2025-02-10T14:50:49.433996,881.1,415.28,-185.55,-187.68,-8.66,31.04,-80.01,2.15,16.99,2025-02-10T14:50:49.433996
584.72,-15.38,827.15,-176.34,66.46,-149.7,-35.27,-9.63,42.47,2025-02-10T14:50:49.514759,922.61,304.93,163.33,-227.74,12.68,22.62,-84.22,2.05,17.15,2025-02-10T14:50:49.514759
663.82,101.07,875.24,-200.37,82.74,-192.62,-36.05,-9.46,42.75,2025-02-10T14:50:49.604626,910.4,282.96,294.19,-270.0,21.4,12.93,-87.52,2.26,16.79,2025-02-10T14:50:49.604626
691.65,-207.28,-250.98,-120.37,12.5,-239.45,-36.93,-8.47,43.16,2025-02-10T14:50:49.697066,571.53,298.58,310.79,-279.45,-82.32,-59.02,-92.1,3.27,17.1,2025-02-10T14:50:49.697066
597.9,-3594.24,-370.12,5.49,-59.02,-40.55,-39.76,-7.45,43.56,2025-02-10T14:50:49.790573,1178.22,-834.47,237.79,104.27,5.73,89.02,-98.39,5.14,17.64,2025-02-10T14:50:49.790573