imu0_acc_x,imu0_acc_y,imu0_acc_z,imu0_gyro_x,imu0_gyro_y,imu0_gyro_z,imu0_roll,imu0_pitch,imu0_yaw,imu0_timestamp,imu1_acc_x,imu1_acc_y,imu1_acc_z,imu1_gyro_x,imu1_gyro_y,imu1_gyro_z,imu1_roll,imu1_pitch,imu1_yaw,imu1_timestamp
420.65,-143.55,933.35,-2.01,-1.1,3.35,-21.36,-4.52,32.61,2025-03-12T10:25:01.143003,899.66,-375.0,-185.3,-30.67,11.04,5.67,-97.04,-4.6,-4.93,2025-03-12T10:25:01.143003
358.64,-252.93,772.71,-12.44,-1.04,7.87,-21.91,-2.96,32.12,2025-03-12T10:25:01.143878,1105.47,-228.76,-68.36,26.77,7.87,3.11,-97.69,-4.45,-5.65,2025-03-12T10:25:01.143878
364.75,-169.68,900.88,-2.07,2.93,0.67,-21.76,-2.03,30.95,2025-03-12T10:25:01.171695,932.13,-156.98,-32.71,-19.02,11.46,0.79,-98.64,-4.76,-6.04,2025-03-12T10:25:01.171695
374.51,-259.52,970.7,14.02,-15.67,-0.3,-22.2,-1.3,28.61,2025-03-12T10:25:01.236464,989.99,-372.8,-99.85,2.8,12.8,1.22,-100.32,-5.52,-7.37,2025-03-12T10:25:01.236464
353.76,-183.11,905.76,-2.68,4.45,-0.98,-23.49,-0.31,26.0,2025-03-12T10:25:01.244484,954.83,-112.3,-122.56,9.94,6.59,-9.21,-102.39,-6.63,-9.41,2025-03-12T10:25:01.244484
391.36,-151.37,922.85,-3.29,4.15,-0.49,-25.19,0.42,23.88,2025-03-12T10:25:01.276655,994.14,-234.86,-103.76,-12.8,16.28,-0.49,-104.48,-7.94,-10.9,2025-03-12T10:25:01.276655
362.55,-164.79,915.77,-1.52,5.61,-0.61,-26.7,0.87,22.71,2025-03-12T10:25:01.335593,987.79,-136.72,-43.21,-19.57,10.67,-2.87,-106.41,-9.26,-11.68,2025-03-12T10:25:01.335593
371.34,-180.91,925.05,-1.16,3.96,-1.4,-27.71,1.32,22.32,2025-03-12T10:25:01.346473,999.27,-192.87,-41.99,-14.88,12.01,2.93,-108.23,-10.45,-12.03,2025-03-12T10:25:01.346473
362.79,-177.98,887.21,-3.11,3.48,0.06,-28.31,1.83,22.18,2025-03-12T10:25:01.382016,990.23,-162.84,-37.6,-1.52,4.15,2.99,-109.82,-11.45,-11.87,2025-03-12T10:25:01.382016
348.14,-179.93,922.85,-0.3,-1.28,0.37,-28.93,2.03,21.6,2025-03-12T10:25:01.440114,967.77,-166.75,0.0,-5.24,2.2,6.89,-111.21,-12.39,-11.75,2025-03-12T10:25:01.440114
397.71,-171.63,919.43,1.1,-5.06,0.0,-30.04,1.85,20.34,2025-03-12T10:25:01.452782,993.41,-239.01,-82.03,16.16,-2.87,6.59,-112.66,-13.35,-12.16,2025-03-12T10:25:01.452782
358.4,-181.88,930.91,2.07,-4.09,0.43,-31.35,1.64,19.03,2025-03-12T10:25:01.487079,975.34,-193.12,-32.71,-8.48,-2.5,9.39,-114.31,-14.51,-12.98,2025-03-12T10:25:01.487079
390.38,-152.1,930.42,3.72,-3.96,-0.79,-32.92,2.03,17.9,2025-03-12T10:25:01.536846,967.77,-295.41,-105.22,16.28,-3.9,6.04,-116.35,-15.69,-13.77,2025-03-12T10:25:01.536846
365.23,-169.19,916.5,2.74,-2.62,0.55,-34.9,2.71,16.77,2025-03-12T10:25:01.557836,968.02,-208.98,-95.21,12.68,-3.96,2.38,-118.73,-16.66,-13.82,2025-03-12T10:25:01.557836
377.44,-154.79,925.78,3.96,-4.27,0.73,-37.12,3.0,15.46,2025-03-12T10:25:01.591902,973.88,-267.09,-46.14,5.43,-1.34,3.29,-121.2,-17.84,-14.22,2025-03-12T10:25:01.591902
382.08,-185.06,923.83,1.59,-3.11,0.49,-38.9,3.25,14.32,2025-03-12T10:25:01.637838,976.81,-235.35,-68.6,17.99,-7.32,-1.52,-123.22,-19.02,-14.8,2025-03-12T10:25:01.637838
376.95,-168.46,915.28,5.3,2.93,-1.83,-39.89,3.4,13.6,2025-03-12T10:25:01.662823,991.46,-296.14,-81.3,-1.71,-1.71,0.61,-124.54,-19.66,-14.86,2025-03-12T10:25:01.662823
378.66,-137.94,896.97,2.87,6.04,-1.83,-40.05,3.22,13.03,2025-03-12T10:25:01.747128,968.75,-250.24,-132.08,9.27,-3.17,-5.49,-125.1,-20.04,-15.09,2025-03-12T10:25:01.747128
369.38,-156.98,914.06,1.83,3.05,-1.28,-39.5,2.81,12.63,2025-03-12T10:25:01.747795,960.21,-218.02,-69.34,-10.85,2.32,-6.28,-124.82,-20.22,-15.78,2025-03-12T10:25:01.747795
377.44,-173.34,915.53,1.59,4.39,-2.13,-38.36,2.05,11.92,2025-03-12T10:25:01.766941,973.39,-234.38,-75.44,1.46,-1.22,-8.84,-123.98,-20.28,-16.56,2025-03-12T10:25:01.766941
371.83,-142.33,924.8,2.68,4.76,-2.62,-37.12,1.35,11.56,2025-03-12T10:25:01.845350,981.2,-221.68,-79.1,-12.2,1.95,-7.56,-123.04,-20.23,-17.43,2025-03-12T10:25:01.845350
382.81,-149.9,923.58,1.1,6.1,-2.13,-35.76,0.9,11.79,2025-03-12T10:25:01.845537,966.31,-204.1,-45.65,-2.26,-1.34,-11.28,-122.05,-19.82,-17.49,2025-03-12T10:25:01.845537
369.14,-157.96,918.7,2.74,9.94,-4.33,-34.34,0.1,11.94,2025-03-12T10:25:01.872431,981.93,-215.82,-82.03,-16.22,0.61,-11.52,-120.84,-19.64,-17.54,2025-03-12T10:25:01.872431
344.24,-134.28,942.14,2.93,7.32,-3.9,-33.06,-1.02,11.56,2025-03-12T10:25:01.950575,1016.6,-213.13,-148.19,-10.18,0.3,-12.13,-119.56,-19.62,-18.48,2025-03-12T10:25:01.950575
339.36,-175.29,940.67,-0.18,7.26,-1.83,-31.24,-1.58,11.15,2025-03-12T10:25:01.951254,974.85,-149.9,-78.37,-14.39,3.48,-15.06,-117.35,-19.99,-21.74,2025-03-12T10:25:01.951254
364.75,-156.74,920.9,0.55,7.38,-2.07,-28.5,-2.08,10.97,2025-03-12T10:25:01.977696,993.41,-233.4,-82.28,-4.09,2.26,-17.68,-115.09,-18.35,-22.16,2025-03-12T10:25:01.977696
321.29,-152.34,934.33,4.27,8.66,-4.02,-25.0,-3.41,10.08,2025-03-12T10:25:02.047830,975.59,-138.43,-46.14,-28.05,6.59,-14.33,-111.37,-16.91,-24.23,2025-03-12T10:25:02.047830
351.81,-117.68,930.91,2.07,3.72,-1.89,-20.93,-5.4,8.77,2025-03-12T10:25:02.048720,991.7,-220.7,-107.18,6.71,0.3,-15.98,-106.38,-14.98,-28.08,2025-03-12T10:25:02.048720
328.86,-178.71,931.88,2.68,6.4,-2.5,-16.5,-7.65,8.68,2025-03-12T10:25:02.168326,955.08,-108.89,-44.43,-16.71,6.46,-17.32,-101.09,-11.64,-29.6,2025-03-12T10:25:02.168326
342.04,-143.07,934.81,2.93,5.85,-3.48,-13.12,-11.87,10.91,2025-03-12T10:25:02.169152,1004.15,-132.32,-41.5,-13.48,3.72,-12.68,-100.85,-11.12,-29.72,2025-03-12T10:25:02.169152
318.36,-107.42,948.49,2.38,3.9,-2.68,-14.7,-12.69,11.17,2025-03-12T10:25:02.169719,984.38,-122.31,-57.37,-0.98,-1.77,-11.04,-100.48,-11.93,-29.53,2025-03-12T10:25:02.169719
343.02,-160.64,941.41,2.5,6.04,-3.9,-14.79,-12.38,11.13,2025-03-12T10:25:02.186545,983.15,-34.18,-32.71,-18.6,0.06,-10.73,-100.11,-11.65,-30.2,2025-03-12T10:25:02.186545
304.2,-126.46,946.29,3.35,4.39,-4.7,-14.77,-12.54,11.01,2025-03-12T10:25:02.254939,1003.91,-83.25,-39.06,-18.48,-3.05,-2.99,-99.73,-11.65,-29.73,2025-03-12T10:25:02.254939
333.74,-135.5,946.04,1.89,3.11,-3.17,-14.66,-12.95,10.94,2025-03-12T10:25:02.256252,1005.13,-32.71,-123.29,9.45,-9.63,-5.0,-99.3,-11.71,-30.19,2025-03-12T10:25:02.256252
306.88,-119.14,955.08,2.74,1.71,-2.74,-14.65,-12.91,10.95,2025-03-12T10:25:02.291112,1004.88,-64.45,-94.73,-19.21,-2.93,2.56,-98.9,-11.65,-29.34,2025-03-12T10:25:02.291112
332.52,-120.36,943.85,-0.24,0.55,-1.59,-14.69,-12.74,10.9,2025-03-12T10:25:02.356702,1002.44,-85.45,-115.97,2.74,-7.56,1.1,-98.49,-11.68,-29.86,2025-03-12T10:25:02.356702
332.28,-115.97,945.8,0.37,-0.55,-1.1,-14.58,-12.77,10.98,2025-03-12T10:25:02.362081,1006.35,-76.42,-113.53,-9.88,-3.11,5.12,-98.11,-11.43,-29.86,2025-03-12T10:25:02.362081
316.65,-149.66,942.87,-0.67,-1.83,0.12,-14.48,-12.84,11.03,2025-03-12T10:25:02.399822,983.64,-119.63,-76.42,-7.13,-5.55,5.91,-97.69,-11.31,-29.48,2025-03-12T10:25:02.399822
316.65,-144.78,943.85,1.52,-1.46,-0.18,-14.38,-12.86,11.08,2025-03-12T10:25:02.460472,997.56,-69.58,-60.3,-5.18,-5.91,7.32,-97.37,-11.15,-28.69,2025-03-12T10:25:02.460472
330.08,-135.25,938.48,1.52,-1.46,-0.49,-14.35,-12.88,11.13,2025-03-12T10:25:02.467275,982.67,-136.72,-138.18,6.83,-8.84,8.41,-97.07,-11.17,-28.29,2025-03-12T10:25:02.467275
332.28,-122.07,948.0,2.07,-2.38,0.49,-14.35,-12.93,11.15,2025-03-12T10:25:02.502241,989.01,-116.94,-161.62,3.66,-4.33,8.66,-96.9,-11.26,-28.22,2025-03-12T10:25:02.502241
354.98,-132.57,932.37,3.41,-2.62,1.77,-14.51,-12.9,11.14,2025-03-12T10:25:02.563091,992.68,-72.75,-96.92,-3.48,-3.54,10.06,-96.84,-11.5,-28.2,2025-03-12T10:25:02.563091
331.05,-141.36,944.34,2.62,-3.84,0.49,-14.69,-12.86,11.12,2025-03-12T10:25:02.578436,989.26,-158.94,-52.73,0.67,-4.51,14.15,-96.85,-11.78,-28.57,2025-03-12T10:25:02.578436
318.85,-127.69,946.53,2.99,-6.16,1.22,-14.86,-12.77,11.11,2025-03-12T10:25:02.607907,980.47,-111.08,-93.99,14.57,-9.57,15.55,-96.96,-12.08,-28.38,2025-03-12T10:25:02.607907
330.08,-110.6,952.64,1.77,-5.43,1.52,-15.04,-12.65,11.09,2025-03-12T10:25:02.662790,985.11,-134.03,-136.23,12.74,-8.35,16.71,-96.98,-12.38,-29.03,2025-03-12T10:25:02.662790
301.51,-124.76,934.57,-0.91,-6.77,2.44,-15.19,-12.55,11.05,2025-03-12T10:25:02.677892,1003.66,-126.95,-121.58,8.48,-8.72,19.76,-97.0,-12.5,-29.25,2025-03-12T10:25:02.677892
345.21,-121.83,936.77,-1.83,-7.2,4.02,-15.34,-12.43,10.97,2025-03-12T10:25:02.711663,968.99,-180.18,-142.33,12.38,-9.45,21.22,-96.99,-12.64,-29.71,2025-03-12T10:25:02.711663
350.59,-123.05,934.81,-4.7,-8.35,5.98,-15.42,-12.33,10.96,2025-03-12T10:25:02.766862,1000.49,-185.79,-191.16,14.51,-7.93,21.52,-97.09,-12.65,-30.06,2025-03-12T10:25:02.766862
314.45,-160.64,941.41,-7.74,-8.35,6.83,-15.36,-12.12,10.97,2025-03-12T10:25:02.782788,975.34,-268.07,-177.25,12.32,-5.18,19.7,-97.1,-12.64,-30.23,2025-03-12T10:25:02.782788
360.35,-143.8,937.99,-5.73,-6.16,5.3,nan,nan,nan,2025-03-12T10:25:02.815620,954.59,-287.35,-150.88,5.49,0.0,17.26,-97.14,-12.46,-30.4,2025-03-12T10:25:02.815620
363.53,-131.35,936.52,-4.57,-5.49,4.33,-15.19,-11.92,11.04,2025-03-12T10:25:02.872774,958.98,-237.79,-158.2,7.8,3.17,13.35,-97.11,-12.21,-30.12,2025-03-12T10:25:02.872774
351.32,-147.95,931.4,-4.88,-5.49,4.82,-15.07,-11.81,11.1,2025-03-12T10:25:02.885666,970.95,-234.86,-61.52,0.73,1.83,14.45,-97.12,-11.88,-30.03,2025-03-12T10:25:02.885666
344.97,-122.31,936.28,-5.24,-4.57,3.05,-14.96,-11.69,11.16,2025-03-12T10:25:02.920647,961.67,-237.3,-33.2,2.62,-1.22,15.49,-97.11,-11.57,-29.78,2025-03-12T10:25:02.920647
368.65,-152.59,918.21,-4.7,-5.0,2.93,-14.74,-11.62,11.23,2025-03-12T10:25:02.972270,946.53,-230.71,-50.78,10.49,-9.33,14.33,-97.18,-11.18,-29.61,2025-03-12T10:25:02.972270
345.46,-127.93,936.28,-5.24,-4.82,1.89,-14.47,-11.46,11.36,2025-03-12T10:25:02.990465,935.3,-270.02,-81.3,-0.67,-10.55,16.83,-97.27,-10.71,-29.05,2025-03-12T10:25:02.990465
365.97,-189.45,909.67,-5.12,-7.38,2.44,-14.29,-11.33,11.45,2025-03-12T10:25:03.026629,932.86,-254.15,-132.32,13.54,-15.18,13.72,-97.29,-10.2,-28.79,2025-03-12T10:25:03.026629
357.91,-148.44,928.96,-4.39,-6.83,2.13,-14.11,-11.28,11.5,2025-03-12T10:25:03.074573,950.68,-312.99,-106.69,7.74,-15.3,15.18,-97.21,-9.65,-28.36,2025-03-12T10:25:03.074573
371.09,-192.38,917.72,-2.74,-5.06,-0.06,-13.88,-11.21,11.58,2025-03-12T10:25:03.095495,938.96,-319.82,-132.08,9.94,-17.01,13.29,-97.11,-9.01,-28.1,2025-03-12T10:25:03.095495
354.49,-167.72,928.96,-2.2,-3.84,-2.87,-13.67,-11.02,11.67,2025-03-12T10:25:03.172840,931.88,-314.45,-144.29,-7.99,-15.67,12.01,-96.99,-8.44,-27.5,2025-03-12T10:25:03.172840
378.66,-169.68,902.83,-1.59,-3.72,-2.44,-13.56,-10.92,11.72,2025-03-12T10:25:03.178844,923.1,-323.0,-180.91,4.7,-17.32,9.15,-96.96,-7.88,-27.79,2025-03-12T10:25:03.178844
369.87,-167.24,922.36,-0.12,0.06,-4.39,-13.44,-10.7,11.82,2025-03-12T10:25:03.202924,920.17,-316.65,-176.03,-4.02,-15.61,7.74,-96.79,-7.25,-27.16,2025-03-12T10:25:03.202924
371.34,-193.85,916.99,1.52,1.1,-4.88,-13.3,-10.57,11.9,2025-03-12T10:25:03.279700,954.59,-354.49,-157.96,-7.8,-17.56,8.84,-96.73,-6.76,-26.92,2025-03-12T10:25:03.279700
374.51,-161.62,922.61,1.34,-2.01,-3.96,-13.22,-10.48,11.98,2025-03-12T10:25:03.280597,938.23,-339.11,-159.18,-6.95,-21.16,8.05,-96.8,-6.37,-26.93,2025-03-12T10:25:03.280597
366.21,-205.32,937.99,3.23,-5.06,-7.38,-8.49,-14.3,-30.13,2025-03-12T10:25:03.305782,1023.93,-370.12,-122.07,-8.41,-27.99,2.44,-96.84,-5.93,-25.99,2025-03-12T10:25:03.305782
360.84,-191.89,936.52,4.39,-15.91,-13.35,0.0,0.0,0.0,2025-03-12T10:25:03.380368,975.34,-238.28,-82.03,-22.87,-28.05,8.41,-97.05,-5.77,-25.8,2025-03-12T10:25:03.380368
284.18,-160.64,958.74,-5.49,-43.41,-20.91,-12.94,-10.0,12.34,2025-03-12T10:25:03.381337,1087.65,-338.13,-236.08,2.68,-36.28,13.72,-97.3,-5.64,-25.79,2025-03-12T10:25:03.381337
496.58,-165.53,938.72,-8.11,-43.17,-26.28,-12.97,-9.94,12.4,2025-03-12T10:25:03.411768,988.53,-368.65,-360.35,11.52,-25.12,7.38,-97.47,-5.65,-25.29,2025-03-12T10:25:03.411768
468.02,-129.88,941.89,11.28,-65.49,-23.54,-13.03,-9.93,12.44,2025-03-12T10:25:03.482180,1011.72,-260.25,-250.49,-8.41,-23.29,11.95,-97.68,-5.7,-25.24,2025-03-12T10:25:03.482180
384.52,-203.37,998.29,12.38,-74.51,-15.18,-13.13,-9.91,12.44,2025-03-12T10:25:03.482906,971.68,-302.25,-246.34,2.44,-36.34,9.33,-97.83,-5.84,-24.87,2025-03-12T10:25:03.482906
321.53,-202.88,1209.47,12.2,-30.0,-3.05,-13.21,-9.87,12.43,2025-03-12T10:25:03.517583,916.75,-278.81,-225.1,11.52,-32.32,9.02,-98.02,-6.02,-24.61,2025-03-12T10:25:03.517583
-58.84,-118.65,1078.37,24.27,15.18,-1.04,-13.32,-9.8,12.43,2025-03-12T10:25:03.584243,1019.04,-153.56,-125.24,5.18,-8.96,-9.51,-98.25,-6.28,-24.47,2025-03-12T10:25:03.584243
-8.06,-83.74,979.98,11.1,26.59,-6.34,-13.41,-9.71,12.43,2025-03-12T10:25:03.586626,946.29,-110.11,-113.53,-1.95,7.99,-19.21,-98.5,-6.61,-24.67,2025-03-12T10:25:03.586626
83.01,-176.03,935.79,6.28,30.43,-4.7,-13.52,-9.62,12.38,2025-03-12T10:25:03.622851,928.71,-133.79,-98.63,-18.48,22.32,-23.11,-98.64,-6.92,-24.68,2025-03-12T10:25:03.622851
168.7,-183.11,998.29,-1.89,34.63,4.39,-13.65,-9.52,12.3,2025-03-12T10:25:03.686588,996.09,-161.87,-78.86,-7.8,24.27,-25.85,-98.74,-7.27,-24.33,2025-03-12T10:25:03.686588
238.53,-92.29,935.06,2.8,37.74,4.45,-13.82,-9.42,12.25,2025-03-12T10:25:03.691741,922.36,-144.78,-101.32,-12.01,27.99,-31.34,-98.89,-7.79,-24.57,2025-03-12T10:25:03.691741
226.32,-243.9,935.55,10.67,29.51,9.45,-14.05,-9.29,12.18,2025-03-12T10:25:03.731049,1003.66,-212.4,-104.49,5.73,29.88,-30.18,-99.16,-8.42,-25.02,2025-03-12T10:25:03.731049
205.32,-210.45,1042.97,6.77,28.9,27.5,-14.28,-9.25,12.08,2025-03-12T10:25:03.794510,1004.64,-235.6,-172.12,14.39,27.38,-37.38,-99.39,-9.07,-25.24,2025-03-12T10:25:03.794510
253.91,-127.69,942.38,0.43,24.45,18.54,-14.54,-9.3,12.0,2025-03-12T10:25:03.796558,968.99,-193.6,-176.76,11.95,41.46,-38.66,-99.64,-9.8,-25.45,2025-03-12T10:25:03.796558
382.57,-152.83,979.25,-0.37,30.24,19.63,-14.84,-9.39,11.86,2025-03-12T10:25:03.833062,997.8,-239.5,-184.81,7.32,45.55,-40.24,-99.9,-10.59,-25.77,2025-03-12T10:25:03.833062
482.18,-142.58,950.44,5.67,36.83,20.06,-15.15,-9.6,11.69,2025-03-12T10:25:03.896475,930.18,-244.38,-190.92,15.24,47.07,-40.49,-100.09,-11.41,-26.01,2025-03-12T10:25:03.896475
468.02,-129.39,881.84,4.51,23.78,30.37,-15.41,-9.88,11.53,2025-03-12T10:25:03.906421,974.37,-219.24,-173.34,33.11,42.38,-37.13,-100.15,-12.15,-26.37,2025-03-12T10:25:03.906421
414.55,-115.48,936.52,1.89,18.11,33.23,-15.64,-10.09,11.41,2025-03-12T10:25:03.936398,996.58,-191.89,-166.99,38.11,35.37,-36.22,-100.1,-12.79,-26.54,2025-03-12T10:25:03.936398
326.42,-32.47,958.98,-1.28,25.55,13.23,-15.84,-10.29,11.29,2025-03-12T10:25:03.997991,1037.11,-109.38,-171.39,23.11,38.05,-34.51,-99.96,-13.29,-26.54,2025-03-12T10:25:03.997991
307.37,3.17,802.49,-14.57,6.28,-9.82,-16.02,-10.48,11.21,2025-03-12T10:25:04.010068,980.96,-116.46,-147.22,-16.95,53.48,-34.39,-99.88,-13.8,-26.54,2025-03-12T10:25:04.010068
541.5,-34.67,1004.15,-14.63,27.68,-13.72,-16.22,-10.66,11.14,2025-03-12T10:25:04.044699,870.85,-167.24,-109.38,-22.38,49.09,-27.56,-99.93,-14.33,-26.61,2025-03-12T10:25:04.044699
614.99,-92.04,794.43,-17.07,11.83,-10.43,-16.35,-10.83,11.13,2025-03-12T10:25:04.098274,923.34,-195.31,-172.36,-8.54,38.6,-20.43,-100.19,-14.9,-26.75,2025-03-12T10:25:04.098274
756.59,-50.05,752.93,-5.0,11.34,-11.22,-16.57,-11.03,11.12,2025-03-12T10:25:04.114485,891.85,-199.95,-222.17,-0.85,25.55,-9.09,-100.56,-15.52,-26.84,2025-03-12T10:25:04.114485
807.13,-16.36,549.56,-12.2,25.43,-8.41,-16.85,-11.2,11.08,2025-03-12T10:25:04.149440,845.7,-338.13,-232.18,6.46,10.37,2.62,-100.97,-16.1,-27.07,2025-03-12T10:25:04.149440
1229.0,134.03,238.28,-27.56,2.8,-24.27,-17.09,-11.34,11.06,2025-03-12T10:25:04.199669,794.92,-286.38,-281.25,31.4,-14.82,26.4,-101.43,-16.66,-27.34,2025-03-12T10:25:04.199669
624.51,174.56,960.94,-92.26,-136.65,-32.2,-17.29,-11.4,11.1,2025-03-12T10:25:04.225122,962.4,-469.48,-419.19,-18.41,-55.37,64.51,-102.27,-17.33,-27.26,2025-03-12T10:25:04.225122
905.03,-396.48,160.4,107.26,88.35,-10.85,-17.48,-11.43,11.2,2025-03-12T10:25:04.315521,754.39,-972.41,-320.8,21.04,-30.37,52.8,-102.86,-17.72,-27.18,2025-03-12T10:25:04.315521
409.18,-257.32,946.78,-6.83,-3.17,-2.93,-17.64,-11.43,11.3,2025-03-12T10:25:04.316122,1002.2,60.06,-325.2,2.32,-24.39,33.17,-103.46,-18.03,-27.09,2025-03-12T10:25:04.316122
285.4,20.75,1073.97,-51.04,-20.98,12.13,-17.68,-11.36,11.44,2025-03-12T10:25:04.326533,1105.47,-187.5,-8.79,-67.62,-9.57,51.22,-104.14,-18.28,-26.71,2025-03-12T10:25:04.326533
427.0,-201.66,1036.62,-12.8,-28.29,-0.55,-17.71,-11.25,11.57,2025-03-12T10:25:04.405487,906.25,-421.63,8.54,6.89,-31.89,37.26,-104.89,-18.51,-26.43,2025-03-12T10:25:04.405487
420.41,-187.26,938.96,11.95,-2.74,-3.66,-17.86,-11.15,11.66,2025-03-12T10:25:04.406397,936.04,-298.1,-79.59,-35.61,-24.09,40.49,-105.86,-18.61,-26.1,2025-03-12T10:25:04.406397
369.63,-165.04,920.41,12.01,2.87,-4.82,-18.17,-10.94,11.95,2025-03-12T10:25:04.433021,939.7,-419.43,-136.23,-27.74,-26.28,31.22,-106.93,-18.59,-25.38,2025-03-12T10:25:04.433021
409.91,-159.91,924.8,4.63,3.9,-3.41,-18.99,-10.69,12.39,2025-03-12T10:25:04.520782,942.38,-178.47,-107.67,-8.41,-27.5,23.29,-108.26,-18.92,-24.97,2025-03-12T10:25:04.520782
388.18,-148.68,912.11,0.0,3.9,-4.21,-20.72,-10.69,13.24,2025-03-12T10:25:04.521667,957.28,-368.65,-126.46,-7.2,-31.71,27.38,-109.08,-19.33,-25.39,2025-03-12T10:25:04.521667
399.41,-164.31,899.17,1.59,1.95,-4.63,-22.29,-10.24,14.06,2025-03-12T10:25:04.537412,920.17,-302.49,-184.81,-1.34,-28.84,26.95,-109.89,-19.62,-25.16,2025-03-12T10:25:04.537412
392.82,-157.71,904.79,3.23,3.54,-5.55,-24.71,-9.36,14.53,2025-03-12T10:25:04.614208,924.07,-383.06,-206.54,-9.7,-26.22,27.26,-111.15,-19.96,-24.95,2025-03-12T10:25:04.614208
398.68,-147.95,911.38,-0.49,1.59,-6.65,-27.22,-9.0,14.83,2025-03-12T10:25:04.614918,926.76,-335.94,-205.81,-15.37,-22.74,26.59,-112.19,-20.37,-25.24,2025-03-12T10:25:04.614918
394.04,-145.26,924.56,-0.91,-1.89,-6.4,-27.57,-8.38,14.43,2025-03-12T10:25:04.642565,957.52,-387.21,-187.01,-11.52,-25.3,26.77,-112.58,-20.27,-25.56,2025-03-12T10:25:04.642565
378.42,-163.33,920.65,-2.93,-6.4,-5.79,-26.76,-7.72,14.13,2025-03-12T10:25:04.720832,909.67,-388.43,-160.4,-17.62,-29.15,25.98,-112.24,-19.64,-25.89,2025-03-12T10:25:04.720832
388.18,-164.06,914.55,-3.48,-7.5,-10.85,-25.64,-7.23,14.14,2025-03-12T10:25:04.721759,932.62,-383.3,-148.44,-26.34,-32.56,29.02,-111.54,-18.65,-25.69,2025-03-12T10:25:04.721759
397.22,-167.48,921.39,-6.04,-14.33,-18.84,-24.43,-7.07,14.12,2025-03-12T10:25:04.751506,971.44,-374.76,-213.62,-22.01,-38.41,29.45,-110.56,-17.62,-25.7,2025-03-12T10:25:04.751506
392.09,-121.09,923.1,-7.44,-27.01,-19.09,-23.02,-7.18,13.96,2025-03-12T10:25:04.817738,947.27,-334.72,-250.98,-24.94,-50.73,29.63,-109.55,-16.41,-25.73,2025-03-12T10:25:04.817738
418.46,-135.74,921.39,-6.65,-61.52,-5.98,-21.7,-7.11,13.75,2025-03-12T10:25:04.820924,967.53,-412.35,-249.27,-8.54,-65.24,29.7,-108.32,-15.4,-26.14,2025-03-12T10:25:04.820924
457.52,-287.84,974.12,6.52,-102.44,-15.3,-20.63,-7.09,13.1,2025-03-12T10:25:04.856411,1332.28,-340.33,-246.09,16.77,-73.48,30.43,-107.07,-14.37,-26.99,2025-03-12T10:25:04.856411
525.15,-124.02,963.62,1.52,-153.11,-31.95,-18.93,-7.26,11.81,2025-03-12T10:25:04.919406,1138.92,-146.97,-195.31,6.89,-73.35,35.49,-105.53,-13.16,-27.8,2025-03-12T10:25:04.919406
506.84,-252.69,834.47,-33.35,-213.48,-37.56,-17.88,-7.38,11.12,2025-03-12T10:25:04.930772,1121.83,-160.64,-179.93,11.71,-95.61,49.27,-103.71,-11.89,-28.51,2025-03-12T10:25:04.930772
629.15,-310.3,858.64,68.72,-215.0,-50.43,-16.58,-7.33,10.42,2025-03-12T10:25:04.964315,957.52,-469.73,-225.83,48.11,-108.9,56.04,-101.94,-10.59,-29.27,2025-03-12T10:25:04.964315
902.1,-356.69,1373.05,-37.68,-186.89,-23.29,-15.62,-7.53,9.45,2025-03-12T10:25:05.021616,813.72,-572.02,-384.77,48.11,-113.17,63.35,-100.16,-9.53,-30.61,2025-03-12T10:25:05.021616
-88.62,-1058.59,1225.1,22.87,-43.66,13.11,-14.87,-7.69,8.25,2025-03-12T10:25:05.037218,926.03,-207.76,-216.8,-30.61,-52.44,39.94,-98.62,-8.53,-32.14,2025-03-12T10:25:05.037218
-60.55,-214.36,1393.07,46.65,41.95,-14.27,-13.86,-7.84,7.58,2025-03-12T10:25:05.070471,788.09,-371.58,-207.76,-86.04,-0.12,11.28,-97.17,-7.45,-33.31,2025-03-12T10:25:05.070471
-73.97,-192.14,1111.08,46.4,106.59,-30.0,-13.42,-8.01,7.79,2025-03-12T10:25:05.121666,797.85,-446.78,-296.14,-38.29,32.26,-27.2,-95.45,-6.24,-33.2,2025-03-12T10:25:05.121666
32.23,-319.09,991.94,22.93,140.55,-8.05,-12.95,-8.45,8.4,2025-03-12T10:25:05.140886,755.13,-394.29,-361.08,0.73,67.13,-57.99,-93.73,-5.19,-32.5,2025-03-12T10:25:05.140886
207.76,-326.66,1028.32,-3.84,172.93,32.5,-12.52,-8.83,8.94,2025-03-12T10:25:05.175551,778.56,-482.42,-464.6,32.38,97.01,-92.8,-92.35,-4.41,-32.05,2025-03-12T10:25:05.175551
420.41,-45.41,1095.21,-16.77,190.43,40.06,-12.3,-9.0,9.37,2025-03-12T10:25:05.229535,833.74,-364.75,-460.94,34.88,121.34,-120.73,-91.44,-3.96,-31.79,2025-03-12T10:25:05.229535
619.87,-79.83,1165.77,-0.3,195.79,35.55,-11.86,-9.3,9.79,2025-03-12T10:25:05.246511,966.31,-423.83,-477.29,-2.56,138.96,-131.59,-90.75,-3.89,-31.85,2025-03-12T10:25:05.246511
746.09,-339.84,977.29,7.68,170.3,38.96,-11.8,-9.83,10.65,2025-03-12T10:25:05.322788,975.59,-492.43,-406.25,-7.5,144.57,-133.66,-90.56,-4.18,-32.1,2025-03-12T10:25:05.322788
824.22,-327.39,1132.08,-13.23,137.01,58.05,-14.53,-12.36,12.32,2025-03-12T10:25:05.331569,946.53,-478.03,-437.74,51.4,140.85,-125.06,-91.62,-5.77,-33.44,2025-03-12T10:25:05.331569
811.77,11.72,998.54,-25.18,132.32,62.32,-18.33,-9.01,12.57,2025-03-12T10:25:05.351687,921.88,-414.55,-484.13,58.54,145.85,-119.76,-92.93,-7.77,-31.14,2025-03-12T10:25:05.351687
946.53,12.94,712.16,-38.41,121.22,29.94,-19.88,-8.72,12.43,2025-03-12T10:25:05.430590,867.43,-292.48,-425.54,25.98,145.73,-108.6,-94.23,-9.37,-32.92,2025-03-12T10:25:05.430590
1270.26,-14.89,1004.64,-61.28,85.18,23.72,-20.37,-10.15,12.59,2025-03-12T10:25:05.431371,855.47,-363.77,-329.35,4.45,125.37,-82.62,-95.0,-10.85,-31.68,2025-03-12T10:25:05.431371
1085.21,170.65,488.77,-33.35,76.16,4.45,-21.58,-11.08,12.86,2025-03-12T10:25:05.457761,847.17,-334.23,-321.78,15.3,85.06,-56.4,-95.84,-12.34,-29.53,2025-03-12T10:25:05.457761
1125.98,12.21,319.34,-15.85,28.17,-19.27,-21.84,-10.76,12.84,2025-03-12T10:25:05.532793,813.23,-251.71,-234.38,-9.76,49.27,-23.17,-96.88,-13.65,-29.76,2025-03-12T10:25:05.532793
1281.74,-108.64,255.37,0.98,-10.06,-26.52,-21.77,-10.32,12.85,2025-03-12T10:25:05.533503,791.99,-383.54,-220.46,-24.45,4.82,22.93,-98.13,-14.83,-28.1,2025-03-12T10:25:05.533503
751.71,340.09,354.0,-38.05,-125.12,-19.09,-21.67,-10.03,12.88,2025-03-12T10:25:05.562676,1022.46,-362.3,-261.47,43.23,-57.32,66.77,-99.29,-15.78,-27.52,2025-03-12T10:25:05.562676
110.11,-193.6,1666.75,65.73,-73.29,-26.16,-21.54,-9.94,12.97,2025-03-12T10:25:05.631985,1487.79,238.28,81.05,-50.06,-44.21,55.3,-100.43,-16.56,-26.84,2025-03-12T10:25:05.631985
553.47,-521.97,1392.33,-11.4,-95.0,-26.71,-21.52,-9.84,13.1,2025-03-12T10:25:05.635206,873.05,-412.84,-74.95,75.98,-68.66,61.1,-101.59,-17.5,-26.6,2025-03-12T10:25:05.635206
463.87,-394.29,1028.81,71.16,-99.27,-7.32,-21.45,-9.67,13.22,2025-03-12T10:25:05.670426,974.37,-312.99,-181.15,15.12,-32.32,50.37,-102.69,-18.39,-26.17,2025-03-12T10:25:05.670426
415.77,-51.27,1123.54,1.4,-57.26,0.06,-21.43,-9.57,13.41,2025-03-12T10:25:05.733863,1120.12,34.42,-59.33,-74.94,-23.9,59.7,-103.73,-19.25,-25.69,2025-03-12T10:25:05.733863
453.12,-53.22,1119.38,-69.63,-73.78,3.35,-21.5,-9.51,13.63,2025-03-12T10:25:05.741254,955.81,-344.97,-26.86,-27.8,-44.51,51.83,-104.8,-20.01,-24.82,2025-03-12T10:25:05.741254
410.64,-239.5,912.35,7.8,-8.96,-5.18,-21.71,-9.51,13.84,2025-03-12T10:25:05.775241,955.81,-380.37,-108.15,-18.54,-33.9,42.56,-105.92,-20.8,-24.16,2025-03-12T10:25:05.775241
416.26,-143.31,923.58,11.28,3.41,-7.2,-22.04,-9.51,14.18,2025-03-12T10:25:05.852614,937.01,-350.83,-185.06,-35.67,-25.06,34.57,-107.28,-21.49,-23.2,2025-03-12T10:25:05.852614
393.31,-139.65,930.18,2.01,4.88,-4.51,-22.56,-9.47,14.79,2025-03-12T10:25:05.853206,977.78,-291.5,-140.14,-21.04,-29.76,27.13,-108.87,-22.21,-21.98,2025-03-12T10:25:05.853206
380.37,-211.67,909.42,-1.77,0.24,-5.85,-23.5,-9.43,15.51,2025-03-12T10:25:05.880613,900.15,-368.65,-51.76,-3.6,-30.61,28.72,-110.67,-22.88,-20.74,2025-03-12T10:25:05.880613
421.14,-175.54,902.34,1.71,1.95,-7.32,-25.19,-9.5,15.96,2025-03-12T10:25:05.945815,888.67,-296.88,-171.39,-16.59,-28.35,30.49,-112.95,-23.54,-19.61,2025-03-12T10:25:05.945815
396.24,-178.47,911.38,0.85,1.1,-5.73,-27.67,-9.56,16.13,2025-03-12T10:25:05.953613,932.62,-373.78,-105.47,-7.26,-31.59,29.09,-115.69,-24.39,-18.79,2025-03-12T10:25:05.953613
395.26,-154.3,919.43,1.83,3.66,-7.56,-31.71,-8.92,16.54,2025-03-12T10:25:05.986550,922.61,-337.65,-159.42,-16.34,-32.01,29.76,-118.28,-25.72,-18.83,2025-03-12T10:25:05.986550
386.47,-207.03,893.8,-0.12,1.83,-9.63,-37.49,-8.63,17.8,2025-03-12T10:25:06.042591,913.57,-346.92,-121.09,-31.89,-34.39,33.78,-121.09,-27.0,-18.3,2025-03-12T10:25:06.042591
374.51,-189.21,924.8,-0.49,-2.32,-12.32,-45.49,-7.76,18.88,2025-03-12T10:25:06.058095,943.12,-372.8,-75.68,-18.41,-46.83,35.79,-124.9,-28.83,-17.69,2025-03-12T10:25:06.058095
384.52,-212.65,925.29,-0.91,-8.84,-20.12,-53.24,-5.2,18.52,2025-03-12T10:25:06.093170,970.95,-406.49,-94.48,-24.88,-54.45,40.73,-128.59,-31.55,-18.01,2025-03-12T10:25:06.093170
399.66,-159.67,949.22,0.37,-33.78,-28.6,-57.94,-4.72,18.08,2025-03-12T10:25:06.151892,983.15,-367.43,-196.53,-29.88,-58.72,43.54,-133.67,-33.94,-16.62,2025-03-12T10:25:06.151892
402.59,-105.47,950.93,-1.46,-73.11,-13.17,-57.86,-3.81,16.54,2025-03-12T10:25:06.164193,1056.15,-377.69,-208.01,-22.62,-84.88,46.16,-135.46,-32.44,-13.87,2025-03-12T10:25:06.164193
446.78,-252.2,1016.36,19.39,-123.11,-12.32,-54.54,-2.22,15.86,2025-03-12T10:25:06.244254,1422.85,-318.85,-148.19,10.91,-102.74,46.77,-134.93,-30.73,-12.98,2025-03-12T10:25:06.244254
404.54,-328.12,998.54,25.06,-201.77,-33.05,-49.84,-1.43,15.56,2025-03-12T10:25:06.249500,1287.6,-113.77,-113.53,-5.06,-110.12,65.24,-132.11,-29.26,-14.28,2025-03-12T10:25:06.249500
418.46,-270.75,938.96,-14.39,-310.49,-45.06,-44.03,-1.93,14.91,2025-03-12T10:25:06.278035,1300.78,-304.2,-113.77,23.48,-121.65,78.29,-127.52,-27.54,-17.18,2025-03-12T10:25:06.278035
896.24,17.33,993.41,40.24,-285.43,-55.73,-37.5,-3.26,14.17,2025-03-12T10:25:06.349728,954.35,-618.9,-352.29,53.9,-135.0,68.6,-121.78,-24.99,-20.99,2025-03-12T10:25:06.349728
-312.5,-512.7,681.64,204.33,-55.79,-15.91,-30.6,-4.06,13.2,2025-03-12T10:25:06.350553,778.56,-267.09,-237.55,-57.99,-75.3,50.12,-116.01,-21.13,-23.57,2025-03-12T10:25:06.350553
-138.43,-479.25,1252.69,33.72,19.7,-39.76,-24.17,-4.46,11.89,2025-03-12T10:25:06.381928,798.1,-427.25,-282.96,-63.17,-10.49,26.71,-110.42,-16.68,-25.19,2025-03-12T10:25:06.381928
-106.69,-408.69,966.8,7.56,78.96,-33.29,-18.98,-5.32,10.23,2025-03-12T10:25:06.459458,726.07,-380.62,-325.44,-41.4,40.49,-16.46,-104.79,-12.77,-27.79,2025-03-12T10:25:06.459458
0.24,-340.09,1040.04,-23.9,126.52,4.63,-14.06,-6.68,8.27,2025-03-12T10:25:06.460343,601.07,-504.64,-421.14,-0.55,82.8,-60.18,-99.14,-9.08,-30.89,2025-03-12T10:25:06.460343
152.83,-85.69,1081.3,-32.44,177.8,44.39,-9.62,-8.19,7.19,2025-03-12T10:25:06.487627,612.06,-485.84,-527.83,57.8,116.95,-101.46,-93.96,-5.42,-32.55,2025-03-12T10:25:06.487627
465.33,106.69,1259.77,-43.9,223.54,44.02,-6.38,-10.13,6.65,2025-03-12T10:25:06.554923,741.21,-349.12,-579.83,59.57,144.57,-137.99,-89.44,-2.41,-32.95,2025-03-12T10:25:06.554923
732.18,-133.54,1336.43,-32.07,247.87,33.17,-3.31,-11.5,6.38,2025-03-12T10:25:06.557040,923.83,-336.43,-609.86,-20.12,190.3,-163.96,-86.29,-0.35,-33.26,2025-03-12T10:25:06.557040
802.98,-96.19,1180.91,-28.17,232.38,38.35,-2.01,-12.22,6.88,2025-03-12T10:25:06.592129,953.37,-524.66,-458.5,-58.23,210.85,-159.76,-84.31,0.71,-33.16,2025-03-12T10:25:06.592129
952.39,-314.94,1340.58,-34.82,185.61,42.2,-2.39,-12.5,7.8,2025-03-12T10:25:06.659926,1004.15,-548.34,-528.08,46.1,201.89,-151.4,-83.7,0.23,-32.36,2025-03-12T10:25:06.659926
1118.41,-14.65,1017.58,-37.87,174.76,68.78,-5.42,-13.19,8.61,2025-03-12T10:25:06.664213,957.76,-355.96,-524.41,53.66,189.27,-148.41,-85.23,-1.77,-33.2,2025-03-12T10:25:06.664213
1610.11,313.23,653.56,-58.72,129.51,45.24,-11.33,-12.03,9.3,2025-03-12T10:25:06.704308,897.71,-281.98,-481.45,38.17,156.34,-115.73,-87.37,-4.01,-32.91,2025-03-12T10:25:06.704308
1893.55,570.8,201.42,-72.38,96.1,-9.51,-13.77,-10.79,9.92,2025-03-12T10:25:06.767701,670.17,-329.1,-364.26,-1.4,91.46,-59.57,-89.26,-6.0,-34.51,2025-03-12T10:25:06.767701
1866.21,403.32,-188.96,12.01,26.28,-56.65,-16.25,-8.76,9.81,2025-03-12T10:25:06.776671,668.7,-500.24,-355.22,-20.18,-2.93,8.72,-90.89,-7.74,-35.94,2025-03-12T10:25:06.776671
925.05,206.3,-365.72,-15.3,-74.33,-80.67,-18.38,-7.94,9.61,2025-03-12T10:25:06.807270,1087.65,-396.24,-144.29,34.7,-84.51,74.63,-91.82,-9.93,-35.08,2025-03-12T10:25:06.807270
-207.52,-839.11,1192.87,154.27,-41.89,-52.87,-20.8,-10.15,10.15,2025-03-12T10:25:06.869099,1588.38,-146.0,145.02,-150.12,-10.98,70.67,-93.33,-11.87,-32.35,2025-03-12T10:25:06.869099
704.83,-293.7,1469.24,43.23,-62.87,-5.24,-21.82,-10.76,10.46,2025-03-12T10:25:06.877213,449.22,-519.29,-286.38,143.23,-84.7,52.74,-95.09,-13.62,-31.67,2025-03-12T10:25:06.877213
565.67,-332.03,1055.66,63.78,-53.29,-7.8,-21.69,-10.14,10.57,2025-03-12T10:25:06.912867,1126.46,12.94,-466.31,69.76,-52.2,49.27,-96.45,-14.95,-30.33,2025-03-12T10:25:06.912867
420.65,211.91,934.08,-16.59,-51.16,9.45,-21.63,-10.08,10.69,2025-03-12T10:25:06.967685,1038.09,-481.93,-74.71,-46.4,-16.89,48.05,-97.77,-16.01,-29.26,2025-03-12T10:25:06.967685
406.49,-256.84,958.74,-77.99,-57.99,9.15,-21.66,-10.03,10.9,2025-03-12T10:25:06.982500,989.5,-336.18,11.47,-61.95,-22.44,53.17,-99.01,-16.89,-28.34,2025-03-12T10:25:06.982500
449.46,-189.45,949.95,-44.63,-24.02,0.18,-21.65,-9.9,11.1,2025-03-12T10:25:07.017795,1038.82,-336.18,-36.87,-20.37,-34.15,44.33,-100.12,-17.87,-28.09,2025-03-12T10:25:07.017795
388.92,-161.38,931.15,12.07,-3.6,-5.91,-21.61,-9.79,11.29,2025-03-12T10:25:07.084887,896.97,-274.66,-162.84,-54.57,-21.95,35.79,-101.36,-18.81,-27.24,2025-03-12T10:25:07.084887
384.52,-159.91,927.0,5.61,1.52,-4.57,-21.54,-9.63,11.53,2025-03-12T10:25:07.090233,975.83,-321.53,-52.49,-38.66,-26.83,27.01,-102.61,-19.77,-26.77,2025-03-12T10:25:07.090233
373.29,-189.94,918.7,2.13,7.62,-6.1,-21.55,-9.51,11.86,2025-03-12T10:25:07.170576,934.57,-308.59,-76.9,-26.89,-26.59,28.05,-104.08,-20.63,-25.7,2025-03-12T10:25:07.170576
383.54,-190.43,922.85,3.05,1.89,-4.45,-21.75,-9.36,12.3,2025-03-12T10:25:07.171285,940.67,-304.2,-56.4,-15.0,-30.61,27.8,-105.79,-21.53,-24.39,2025-03-12T10:25:07.171285
375.24,-198.49,907.96,4.94,1.1,-4.7,-22.26,-9.11,13.07,2025-03-12T10:25:07.192426,945.56,-311.77,-28.81,-0.49,-39.02,28.11,-107.81,-22.58,-23.36,2025-03-12T10:25:07.192426
364.26,-188.72,924.32,2.56,0.49,-6.83,-23.31,-8.74,14.04,2025-03-12T10:25:07.269564,941.89,-325.93,-95.95,-4.63,-42.44,30.43,-110.24,-23.63,-21.89,2025-03-12T10:25:07.269564
377.93,-184.81,925.78,4.21,-0.98,-7.13,-25.54,-8.54,14.61,2025-03-12T10:25:07.270543,908.69,-345.21,-129.88,-12.8,-46.59,32.26,-113.15,-24.67,-20.28,2025-03-12T10:25:07.270543
375.49,-182.62,926.76,2.93,-3.11,-8.9,-29.37,-8.02,14.65,2025-03-12T10:25:07.297678,922.85,-365.97,-122.31,-5.61,-53.6,33.66,-117.06,-25.86,-18.79,2025-03-12T10:25:07.297678
381.35,-182.13,935.55,1.59,-11.77,-12.38,-35.77,-6.73,15.01,2025-03-12T10:25:07.377582,972.41,-367.43,-204.35,-16.22,-56.71,37.74,-121.04,-27.66,-18.18,2025-03-12T10:25:07.377582
377.2,-173.83,939.45,0.37,-29.09,-14.94,-45.71,-6.18,16.38,2025-03-12T10:25:07.378487,1015.38,-350.34,-160.16,-28.96,-63.11,40.67,-128.28,-30.99,-15.97,2025-03-12T10:25:07.378487
393.31,-184.08,968.51,0.3,-64.51,-17.44,-54.91,-3.17,15.98,2025-03-12T10:25:07.406705,1051.03,-311.28,-156.25,-20.06,-85.0,50.06,-133.01,-34.04,-15.49,2025-03-12T10:25:07.406705
409.42,-279.05,1050.05,2.74,-112.13,-12.8,-59.63,-1.25,14.74,2025-03-12T10:25:07.475621,1424.07,-386.96,-237.3,11.71,-109.63,58.9,-137.94,-34.43,-12.94,2025-03-12T10:25:07.475621
577.64,-358.64,983.89,20.12,-181.28,-41.83,-60.11,0.63,14.15,2025-03-12T10:25:07.477563,1344.73,-180.18,-215.33,14.76,-110.73,68.84,-140.25,-33.49,-10.18,2025-03-12T10:25:07.477563
452.64,-314.7,979.74,-26.52,-289.94,-50.0,-57.58,2.21,14.11,2025-03-12T10:25:07.514619,1267.82,-171.14,-156.98,18.05,-124.02,75.0,-139.91,-32.09,-9.08,2025-03-12T10:25:07.514619
616.94,-245.36,1335.21,73.54,-302.99,-47.99,-52.96,1.98,14.52,2025-03-12T10:25:07.579162,976.07,-758.06,-315.19,28.35,-129.33,57.44,-136.73,-30.51,-10.28,2025-03-12T10:25:07.579162
-77.64,-468.26,1277.83,115.79,-102.2,9.7,-46.76,0.29,14.42,2025-03-12T10:25:07.597935,612.79,-460.69,-163.33,-18.66,-77.87,17.26,-130.96,-29.31,-14.15,2025-03-12T10:25:07.597935
-96.44,-305.18,1290.04,43.29,11.59,-10.12,-39.35,-1.99,14.28,2025-03-12T10:25:07.622628,624.02,-532.96,-222.41,-22.93,-19.57,-0.61,-123.7,-27.1,-19.3,2025-03-12T10:25:07.622628
-60.3,-297.85,924.32,48.66,89.82,-29.76,-30.82,-3.63,14.03,2025-03-12T10:25:07.688030,600.83,-375.0,-280.76,-14.88,33.41,-40.49,-116.12,-22.28,-22.45,2025-03-12T10:25:07.688030
77.15,-437.01,910.16,13.48,128.54,8.96,-22.36,-5.21,13.27,2025-03-12T10:25:07.705115,613.04,-544.92,-342.29,7.2,72.38,-80.73,-108.68,-16.24,-22.81,2025-03-12T10:25:07.705115
272.46,-249.27,1057.62,-20.49,160.55,56.71,-15.4,-6.65,12.36,2025-03-12T10:25:07.783887,625.73,-576.66,-373.29,52.56,95.06,-113.05,-101.1,-11.25,-24.84,2025-03-12T10:25:07.783887
506.84,-141.6,1083.98,-6.1,196.28,64.7,-8.83,-8.37,10.39,2025-03-12T10:25:07.802396,805.91,-498.05,-459.23,79.15,110.98,-140.91,-93.92,-6.27,-27.69,2025-03-12T10:25:07.802396
734.62,-318.85,1155.52,3.29,208.41,56.22,-3.68,-10.62,8.63,2025-03-12T10:25:07.803259,937.26,-402.59,-507.08,21.83,142.07,-158.29,-88.07,-1.96,-29.23,2025-03-12T10:25:07.803259
825.93,-239.75,1001.95,-6.95,198.78,74.39,-0.23,-13.14,8.67,2025-03-12T10:25:07.832663,949.95,-514.16,-364.26,-26.1,164.15,-146.65,-84.27,0.6,-29.48,2025-03-12T10:25:07.832663
793.95,-123.05,1093.51,-29.33,161.71,49.21,1.1,-13.7,10.27,2025-03-12T10:25:07.887690,989.75,-453.86,-441.89,43.84,156.95,-131.34,-83.47,0.81,-28.64,2025-03-12T10:25:07.887690
727.05,-65.92,1031.01,-30.98,145.79,25.98,-1.26,-13.37,13.04,2025-03-12T10:25:07.902778,938.48,-293.21,-453.61,6.22,167.99,-121.89,-85.89,-1.26,-29.45,2025-03-12T10:25:07.902778
983.89,-95.21,1192.87,-57.87,131.77,25.49,-7.02,-11.58,15.64,2025-03-12T10:25:07.940197,936.04,-350.59,-334.23,-4.63,163.05,-103.05,-87.52,-4.11,-26.45,2025-03-12T10:25:07.940197
890.87,186.52,693.6,-60.91,106.52,4.39,-10.16,-10.89,15.02,2025-03-12T10:25:07.990058,905.52,-227.78,-289.79,31.1,132.56,-89.76,-89.55,-5.98,-29.01,2025-03-12T10:25:07.990058
1086.67,367.43,667.24,-50.79,62.87,-35.06,-12.2,-8.78,15.09,2025-03-12T10:25:08.010346,893.07,-117.19,-218.02,5.0,97.07,-64.15,-91.65,-7.63,-32.73,2025-03-12T10:25:08.010346
1204.59,191.16,458.74,-8.05,42.13,-62.74,-13.94,-7.53,14.91,2025-03-12T10:25:08.116288,800.54,-169.19,-122.31,-56.71,45.49,-14.09,-92.53,-9.38,-31.12,2025-03-12T10:25:08.116288
899.17,-336.91,364.26,42.32,-27.38,-27.2,-15.55,-8.75,14.95,2025-03-12T10:25:08.117153,833.74,-409.42,-128.17,-34.15,-9.57,22.87,-93.7,-11.21,-29.13,2025-03-12T10:25:08.117153
779.54,-305.66,635.99,5.0,-61.71,19.51,-17.51,-10.87,15.38,2025-03-12T10:25:08.117788,871.09,-424.07,-144.04,68.23,-49.7,29.82,-95.03,-12.87,-27.78,2025-03-12T10:25:08.117788
387.94,335.69,495.36,-72.13,-200.85,-43.41,nan,nan,nan,2025-03-12T10:25:08.220275,1470.95,-28.81,-40.04,105.24,-68.78,58.84,-96.32,-14.0,-26.27,2025-03-12T10:25:08.220275
479.74,10.5,1208.5,39.63,-82.56,-19.51,-18.48,-11.05,15.73,2025-03-12T10:25:08.221055,1160.64,-250.73,-129.64,-60.61,-25.67,59.15,-97.6,-15.02,-24.38,2025-03-12T10:25:08.221055
102.78,-82.28,979.25,-23.17,-74.76,-12.8,-18.31,-10.77,15.93,2025-03-12T10:25:08.222766,758.06,-179.2,-40.28,7.87,-46.04,51.95,-98.87,-15.79,-22.99,2025-03-12T10:25:08.222766
465.58,-476.07,1073.24,20.43,-50.43,-7.68,-18.22,-10.65,16.07,2025-03-12T10:25:08.514688,1083.25,-303.96,-13.43,27.74,-47.8,58.54,-100.05,-16.64,-22.02,2025-03-12T10:25:08.514688
354.74,-99.37,1115.72,34.82,-39.15,-8.11,-18.2,-10.46,16.17,2025-03-12T10:25:08.515575,999.76,-182.37,32.47,-11.65,-34.94,54.21,-101.3,-17.55,-21.48,2025-03-12T10:25:08.515575
390.87,-228.03,1027.34,16.16,-36.65,1.22,-18.21,-10.28,16.35,2025-03-12T10:25:08.516458,946.04,-360.11,-22.71,-58.48,-30.85,57.44,-102.72,-18.55,-21.29,2025-03-12T10:25:08.516458
369.38,-168.46,945.56,-30.37,-40.91,4.76,-18.28,-10.1,16.53,2025-03-12T10:25:08.516979,1012.7,-302.73,-159.42,-15.0,-40.18,40.67,-104.37,-19.54,-20.71,2025-03-12T10:25:08.516979
374.51,-162.11,911.13,-33.41,-36.59,2.07,-18.42,-9.92,16.78,2025-03-12T10:25:08.517464,955.08,-192.87,-173.58,-23.84,-25.0,38.6,-106.23,-20.54,-20.03,2025-03-12T10:25:08.517464
341.55,-220.21,934.33,5.61,-19.33,-2.44,-18.81,-9.72,17.14,2025-03-12T10:25:08.518000,953.86,-338.62,122.8,-67.32,-9.51,39.51,-108.3,-21.65,-19.5,2025-03-12T10:25:08.518000
438.96,-187.5,929.2,10.98,0.85,-5.73,-19.75,-9.55,17.61,2025-03-12T10:25:08.518688,928.96,-307.37,-69.09,-42.74,-24.7,29.76,-110.73,-22.66,-18.26,2025-03-12T10:25:08.518688
373.78,-193.6,922.12,2.93,5.0,-6.16,-21.81,-9.35,18.16,2025-03-12T10:25:08.519439,931.88,-295.17,-9.77,-51.1,-25.91,32.2,-113.66,-23.66,-16.74,2025-03-12T10:25:08.519439
370.36,-201.42,908.69,4.51,3.9,-6.83,-25.3,-9.14,18.65,2025-03-12T10:25:08.564603,943.12,-303.22,-26.86,-9.27,-32.87,30.85,-117.35,-25.02,-15.21,2025-03-12T10:25:08.564603
374.76,-185.55,925.05,6.16,1.34,-6.77,-30.99,-8.02,19.35,2025-03-12T10:25:08.616201,923.83,-308.84,-31.74,-7.2,-41.16,34.33,-121.43,-26.98,-14.45,2025-03-12T10:25:08.616201
370.85,-180.91,920.17,2.32,-1.77,-5.06,-40.13,-7.51,21.08,2025-03-12T10:25:08.616951,909.91,-323.73,-106.93,-1.4,-45.79,38.9,-125.93,-29.4,-13.5,2025-03-12T10:25:08.616951
349.37,-188.72,941.41,1.65,-4.94,-5.43,-49.01,-2.76,19.2,2025-03-12T10:25:08.642689,915.04,-331.79,-84.96,-4.88,-53.96,41.28,-130.93,-31.84,-12.16,2025-03-12T10:25:08.642689
394.04,-183.59,936.04,1.16,-9.82,-7.8,-55.65,0.02,16.69,2025-03-12T10:25:08.696711,935.55,-421.14,-169.19,-1.34,-59.09,44.33,-135.76,-33.27,-11.25,2025-03-12T10:25:08.696711
374.76,-175.05,955.57,0.18,-27.01,-10.61,-56.42,1.57,14.56,2025-03-12T10:25:08.714846,1001.95,-417.24,-158.94,-15.98,-63.96,48.17,-138.39,-33.17,-10.28,2025-03-12T10:25:08.714846
400.63,-171.63,952.15,-3.48,-62.01,-17.62,-53.43,3.44,13.37,2025-03-12T10:25:08.749646,1003.91,-398.44,-90.09,-18.66,-73.72,55.18,-138.75,-32.48,-10.09,2025-03-12T10:25:08.749646
371.09,-230.22,1040.77,0.73,-114.51,-18.17,-48.98,3.95,12.87,2025-03-12T10:25:08.799771,1102.05,-551.03,-74.71,-2.8,-102.62,69.7,-136.61,-30.91,-11.26,2025-03-12T10:25:08.799771
440.19,-52.98,961.18,3.05,-174.76,-34.27,-43.39,2.42,11.93,2025-03-12T10:25:08.839514,1347.9,-316.65,-353.52,-18.54,-104.76,81.34,-129.75,-2.0,-2.15,2025-03-12T10:25:08.839514
388.67,-195.56,1057.13,-72.44,-280.73,-32.26,-36.66,0.75,10.28,2025-03-12T10:25:08.855326,1372.56,-124.27,-261.72,-40.18,-109.45,85.91,nan,nan,nan,2025-03-12T10:25:08.855326
547.85,26.61,1008.54,20.79,-332.26,-41.83,-29.44,-0.37,8.62,2025-03-12T10:25:08.902225,1111.57,-324.22,-61.04,33.35,-117.32,59.57,-119.97,-24.29,-24.72,2025-03-12T10:25:08.902225
413.09,-1338.38,3627.44,-110.67,-181.71,-51.65,-22.24,-1.49,6.45,2025-03-12T10:25:08.924424,729.49,-795.41,-469.24,-46.52,-74.82,6.59,nan,nan,nan,2025-03-12T10:25:08.924424
-203.86,328.61,1496.34,99.45,22.26,13.29,-16.25,-3.04,4.79,2025-03-12T10:25:08.959721,833.01,-358.15,-294.19,-12.56,-3.78,1.28,-107.59,-14.66,-29.03,2025-03-12T10:25:08.959721
-102.78,-181.64,1067.38,40.49,96.71,-46.22,-10.95,-4.26,4.03,2025-03-12T10:25:09.009739,677.73,-409.67,-196.78,-8.11,42.93,-47.32,-101.47,-10.61,-31.61,2025-03-12T10:25:09.009739
46.63,-492.43,913.33,32.8,145.3,-36.83,-6.32,-6.17,3.45,2025-03-12T10:25:09.031394,602.54,-444.09,-347.66,-4.88,85.3,-92.5,-92.75,-4.89,-32.21,2025-03-12T10:25:09.031394
248.29,-349.61,989.01,0.24,183.48,15.98,-1.3,-7.81,2.67,2025-03-12T10:25:09.065944,627.2,-541.5,-408.2,13.9,122.8,-127.44,-90.18,14.61,-14.77,2025-03-12T10:25:09.065944
544.68,-199.71,1157.23,-12.56,210.85,41.52,1.9,-9.95,2.8,2025-03-12T10:25:09.107493,682.37,-534.67,-477.78,44.45,144.39,-151.34,-85.14,16.53,-15.32,2025-03-12T10:25:09.107493
780.76,-208.01,1138.92,-5.55,232.13,55.67,3.8,-11.53,4.25,2025-03-12T10:25:09.136652,838.62,-500.73,-512.21,27.38,155.98,-172.74,20.22,26.53,-18.04,2025-03-12T10:25:09.136652
889.4,-158.2,1126.22,0.73,207.38,62.13,3.96,-11.41,6.43,2025-03-12T10:25:09.211930,937.74,-428.71,-495.36,12.74,167.26,-168.11,28.46,1.84,81.97,2025-03-12T10:25:09.211930
1041.02,-259.52,1207.76,-4.45,174.63,52.8,2.17,-10.25,6.88,2025-03-12T10:25:09.212910,926.27,-535.4,-512.7,47.2,161.89,-158.54,nan,nan,nan,2025-03-12T10:25:09.212910
1188.23,-317.14,930.42,-9.45,164.88,70.91,-0.72,-10.85,6.74,2025-03-12T10:25:09.240903,940.92,-489.75,-491.21,60.85,146.46,-140.49,-84.67,-1.01,-33.86,2025-03-12T10:25:09.240903
1209.23,-26.37,754.39,-4.57,125.98,89.63,-5.74,-10.98,7.97,2025-03-12T10:25:09.274957,941.89,-440.19,-415.04,84.39,108.72,-124.27,nan,nan,nan,2025-03-12T10:25:09.274957
1134.77,284.42,486.82,-4.7,86.28,59.27,-8.6,-10.02,8.52,2025-03-12T10:25:09.335387,854.25,-229.25,-288.09,40.0,75.85,-82.93,-87.9,-5.13,-34.21,2025-03-12T10:25:09.335387
1120.36,29.79,495.85,0.12,44.33,7.44,-10.95,-9.93,8.9,2025-03-12T10:25:09.345213,824.22,-239.5,-170.65,-0.91,33.48,-38.23,-89.46,-7.04,-34.92,2025-03-12T10:25:09.345213
842.77,-222.66,565.67,40.0,5.55,-8.35,-12.63,-8.93,8.92,2025-03-12T10:25:09.436620,892.58,-278.56,-123.78,1.22,0.85,-12.74,-90.9,-9.04,-35.61,2025-03-12T10:25:09.436620
543.95,-288.33,664.55,35.91,-3.41,23.05,-14.06,-7.8,8.76,2025-03-12T10:25:09.437389,814.45,-372.31,-91.55,54.02,-23.35,-4.27,-92.17,-10.95,-34.59,2025-03-12T10:25:09.437389
650.88,-19.78,729.25,26.04,-21.71,29.39,-15.39,-7.61,8.66,2025-03-12T10:25:09.449854,875.98,-282.96,-106.69,49.33,-32.26,9.63,-93.73,-12.82,-32.76,2025-03-12T10:25:09.449854
15.62,126.71,327.88,8.66,-13.9,-23.29,-16.96,-8.84,8.88,2025-03-12T10:25:09.485505,833.74,-194.82,-66.41,10.79,-16.04,26.46,-95.19,-14.16,-32.21,2025-03-12T10:25:09.485505
771.73,-822.51,2207.03,-195.24,-227.99,18.6,-18.18,-9.77,9.13,2025-03-12T10:25:09.538114,1735.35,425.29,240.97,-24.82,-25.73,7.01,-96.36,-15.34,-30.78,2025-03-12T10:25:09.538114
235.35,-298.58,1474.85,-16.59,-129.45,-15.24,-18.71,-9.48,9.2,2025-03-12T10:25:09.557791,1218.75,-114.01,-158.69,87.26,-72.99,15.12,0.0,0.0,0.0,2025-03-12T10:25:09.557791
443.85,-907.71,1276.86,-36.4,-99.88,12.62,-18.67,-9.14,9.29,2025-03-12T10:25:09.636549,1050.54,10.99,2.44,36.46,-31.4,23.11,0.0,0.0,0.0,2025-03-12T10:25:09.636549
377.69,107.42,1135.25,41.16,-49.39,0.18,-17.78,-10.48,-0.13,2025-03-12T10:25:09.641186,1118.9,223.88,-225.1,-21.77,-28.78,16.83,-101.55,-19.03,-24.68,2025-03-12T10:25:09.641186
307.13,159.18,1041.02,-23.11,-31.1,2.01,-18.52,-8.6,9.68,2025-03-12T10:25:09.666910,1040.04,-99.37,-90.58,-47.01,-21.77,31.95,-102.32,-19.59,-24.43,2025-03-12T10:25:09.666910
319.82,-332.52,972.17,-45.06,-18.35,1.34,-18.6,-8.43,9.84,2025-03-12T10:25:09.750671,1004.88,-114.01,-50.54,3.35,-31.89,13.84,-103.97,-20.83,-24.05,2025-03-12T10:25:09.750671
346.68,-212.4,973.39,-7.56,-24.63,-6.65,-18.78,-8.32,9.99,2025-03-12T10:25:09.751595,1007.57,-177.0,-80.81,-21.71,-19.27,22.56,-105.9,-22.18,-23.6,2025-03-12T10:25:09.751595
371.83,-111.57,1004.88,-3.41,-13.23,-7.62,-19.12,-8.22,10.23,2025-03-12T10:25:09.770861,1009.28,-22.71,-284.91,0.49,-23.78,10.73,-108.05,-23.67,-23.14,2025-03-12T10:25:09.770861
369.63,-58.35,960.94,-9.02,-6.34,-5.3,-19.93,-8.13,10.54,2025-03-12T10:25:09.847468,982.42,-5.62,-217.53,-43.05,-7.93,13.23,-110.62,-25.06,-22.04,2025-03-12T10:25:09.847468
363.53,-171.88,952.88,-8.35,-0.3,-6.22,-21.76,-8.05,11.08,2025-03-12T10:25:09.848386,1015.14,-84.96,-63.96,-51.28,-1.95,15.73,-113.6,-26.46,-20.66,2025-03-12T10:25:09.848386
375.0,-200.44,912.11,-2.01,1.4,-6.28,-25.32,-7.86,11.73,2025-03-12T10:25:09.948948,994.38,-1.46,-54.2,-21.83,-9.33,10.98,-117.71,-28.07,-18.56,2025-03-12T10:25:09.948948
352.29,-151.37,929.93,3.23,-3.72,-5.55,-30.87,-7.21,12.57,2025-03-12T10:25:09.952367,987.79,-34.42,-102.54,-21.59,-9.39,13.72,-122.02,-30.16,-17.11,2025-03-12T10:25:09.952367
350.34,-179.93,920.65,-0.18,0.37,-6.46,-39.71,-7.88,14.44,2025-03-12T10:25:09.953161,990.97,-32.23,-93.02,-24.76,-8.72,16.22,-127.27,-32.02,-14.15,2025-03-12T10:25:09.953161
384.77,-175.29,913.09,1.59,3.78,-7.01,-51.41,-6.77,15.39,2025-03-12T10:25:09.987940,970.46,-157.96,-111.33,-18.6,-10.12,14.39,-132.59,-33.67,-11.23,2025-03-12T10:25:09.987940
366.46,-158.94,925.05,2.87,3.11,-6.77,-60.26,-6.49,18.15,2025-03-12T10:25:10.052653,899.41,-65.19,-273.68,-32.87,-16.71,29.39,-136.75,-35.24,-10.45,2025-03-12T10:25:10.052653
364.01,-176.27,934.57,0.37,3.48,-6.34,-59.64,-6.05,14.97,2025-03-12T10:25:10.053530,984.62,-57.62,-124.51,-21.71,0.3,9.63,-139.4,-34.51,-9.2,2025-03-12T10:25:10.053530
332.76,-130.62,937.26,-2.62,2.8,-6.46,-56.45,-4.63,14.76,2025-03-12T10:25:10.086028,992.43,-105.22,-180.91,-17.32,1.34,11.89,-139.04,-34.11,-9.26,2025-03-12T10:25:10.086028
360.6,-152.59,930.91,-2.32,2.5,-4.94,-51.43,-2.72,14.6,2025-03-12T10:25:10.152545,966.55,-62.5,-152.1,-22.01,4.45,11.95,-136.24,-32.57,-10.89,2025-03-12T10:25:10.152545
350.59,-145.51,929.2,-1.04,-1.1,-2.07,-45.06,-2.59,14.1,2025-03-12T10:25:10.154753,1020.02,-90.82,-130.62,-5.37,2.68,13.48,-131.38,-29.89,-13.73,2025-03-12T10:25:10.154753
358.64,-152.83,926.51,-2.68,-1.71,-0.85,-37.7,-3.66,13.2,2025-03-12T10:25:10.191090,980.96,-84.47,-156.98,-6.77,2.93,13.35,-124.94,-26.7,-17.73,2025-03-12T10:25:10.191090
352.29,-144.04,926.51,-2.5,-3.29,1.4,-29.59,-4.78,11.79,2025-03-12T10:25:10.258874,985.6,-156.98,-188.96,4.51,4.88,12.44,-117.84,-22.82,-22.38,2025-03-12T10:25:10.258874
372.07,-149.9,914.06,-2.44,-3.23,3.66,-21.82,-5.68,9.83,2025-03-12T10:25:10.260136,1006.1,-100.34,-82.28,-6.71,7.74,11.95,-111.03,-17.62,-25.84,2025-03-12T10:25:10.260136
345.7,-187.74,922.36,-2.01,-3.54,2.5,-15.27,-6.37,7.98,2025-03-12T10:25:10.298580,995.61,-155.27,-93.75,17.5,4.27,10.67,-104.53,-12.3,-28.41,2025-03-12T10:25:10.298580
369.38,-177.73,922.85,-1.71,-2.8,2.62,-9.1,-7.08,5.83,2025-03-12T10:25:10.364104,978.27,-98.39,-120.61,10.18,3.72,9.82,-98.47,-7.37,-31.23,2025-03-12T10:25:10.364104
321.78,-200.2,920.9,-3.41,-5.85,5.12,-3.99,-7.61,2.79,2025-03-12T10:25:10.366691,978.03,-218.51,-90.58,-2.2,4.45,12.5,-93.41,-2.83,-34.11,2025-03-12T10:25:10.366691
368.16,-163.33,935.55,-5.98,-3.11,3.78,-0.27,-7.85,0.3,2025-03-12T10:25:10.476881,1023.19,-263.92,-145.51,30.0,3.72,2.32,-89.98,0.99,-36.86,2025-03-12T10:25:10.476881
388.43,-187.01,917.24,-2.87,1.46,2.38,1.58,-8.0,-0.37,2025-03-12T10:25:10.477870,922.36,-142.09,-19.78,-30.91,11.04,3.9,-87.73,3.51,-37.88,2025-03-12T10:25:10.477870
351.07,-190.43,918.95,-1.1,0.49,2.93,1.93,-6.94,-0.09,2025-03-12T10:25:10.478576,988.53,-142.82,130.13,-23.05,-1.16,6.89,-86.93,4.48,-37.64,2025-03-12T10:25:10.478576
315.19,-203.12,906.49,1.95,-4.76,-0.24,1.66,-5.72,-0.51,2025-03-12T10:25:10.506104,992.43,-268.55,-21.24,30.43,-18.96,0.98,-87.25,4.68,-38.1,2025-03-12T10:25:10.506104
365.72,-189.45,911.13,6.71,-3.23,-2.62,1.07,-4.65,-1.58,2025-03-12T10:25:10.566203,952.64,-49.32,-121.09,3.35,-11.28,2.01,-88.39,4.64,-40.14,2025-03-12T10:25:10.566203
352.05,-165.28,916.02,3.66,-2.32,-0.24,0.38,-4.09,-1.34,2025-03-12T10:25:10.602822,996.83,-206.3,-61.77,-24.76,-14.15,5.61,-89.59,4.15,-41.54,2025-03-12T10:25:10.602822
349.85,-181.88,923.34,1.28,0.61,-2.01,-5.05,-8.47,-0.92,2025-03-12T10:25:10.611446,986.57,-235.11,-123.05,19.39,-20.06,-2.2,-89.3,3.16,-39.73,2025-03-12T10:25:10.611446
362.79,-169.19,924.07,5.79,0.0,-3.54,-7.88,-8.48,-0.94,2025-03-12T10:25:10.666506,983.64,-126.71,-171.39,-7.74,-10.73,-0.18,-90.92,2.36,-40.44,2025-03-12T10:25:10.666506
376.71,-165.04,917.48,4.27,-0.61,-1.28,-10.76,-9.26,-0.72,2025-03-12T10:25:10.681833,970.95,-229.74,-126.22,-7.38,-12.93,-1.59,-93.4,1.67,-43.73,2025-03-12T10:25:10.681833
371.58,-166.02,926.03,2.74,0.98,-1.89,-13.53,-7.54,-1.81,2025-03-12T10:25:10.721366,1011.96,-169.19,-167.72,18.9,-14.57,-6.59,-94.4,0.74,-44.51,2025-03-12T10:25:10.721366
372.07,-155.03,915.53,6.28,1.1,-2.68,-14.89,-6.84,-2.04,2025-03-12T10:25:10.767482,948.24,-141.6,-164.55,-7.8,-9.88,-4.88,-94.98,0.23,-42.61,2025-03-12T10:25:10.767482
354.0,-161.13,909.42,4.27,0.0,-2.07,-15.86,-8.1,-1.83,2025-03-12T10:25:10.786854,989.5,-201.17,-140.38,-6.65,-9.51,-4.57,-96.0,-0.64,-41.75,2025-03-12T10:25:10.786854
368.9,-151.61,929.93,3.11,1.4,-3.05,-16.63,-9.39,-1.42,2025-03-12T10:25:10.825879,970.46,-134.52,-166.99,6.46,-12.26,-8.23,-96.9,-1.26,-41.34,2025-03-12T10:25:10.825879
358.64,-160.4,927.25,5.06,0.49,-2.87,-17.48,-9.63,-1.07,2025-03-12T10:25:10.868376,1004.88,-139.89,-160.16,-13.96,-9.57,-4.94,-97.69,-1.94,-40.86,2025-03-12T10:25:10.868376
355.22,-168.95,944.34,6.65,1.1,-4.51,-17.91,-9.69,-0.81,2025-03-12T10:25:10.889804,981.2,-163.57,-139.89,-11.83,-11.04,-6.22,-98.24,-2.34,-40.26,2025-03-12T10:25:10.889804
354.0,-141.36,953.12,8.23,2.13,-7.26,-18.2,-9.92,-0.54,2025-03-12T10:25:10.924792,1009.52,-125.0,-165.53,-9.63,-11.65,-4.88,-98.48,-2.56,-38.44,2025-03-12T10:25:10.924792
337.4,-139.16,963.38,12.32,0.91,-12.74,-18.23,-10.09,-0.25,2025-03-12T10:25:10.979118,1012.94,-100.83,-157.23,-24.7,-8.96,-2.01,-98.63,-2.82,-36.87,2025-03-12T10:25:10.979118
342.04,-201.66,938.72,16.59,-1.77,-26.77,-18.26,-10.07,-0.03,2025-03-12T10:25:10.996148,1043.46,-73.0,-121.58,-33.9,-0.12,3.84,-98.93,-3.08,-36.07,2025-03-12T10:25:10.996148
346.44,-50.05,972.17,-10.73,3.96,-56.04,-18.37,-9.96,0.13,2025-03-12T10:25:11.071570,1006.59,-127.69,-129.88,-33.05,13.84,12.93,-99.28,-3.44,-35.17,2025-03-12T10:25:11.071570
395.75,-31.25,875.49,-6.1,-4.88,-75.06,-18.39,-9.9,0.36,2025-03-12T10:25:11.081657,976.32,-160.89,-221.92,-46.16,21.28,15.98,-99.62,-3.89,-34.27,2025-03-12T10:25:11.081657
483.89,24.41,945.31,-3.23,-4.15,-87.26,-18.3,-9.74,0.57,2025-03-12T10:25:11.102849,901.37,-137.21,-248.05,-53.72,18.78,9.39,-99.97,-4.28,-33.47,2025-03-12T10:25:11.102849
367.43,-63.48,912.35,-17.8,4.27,-71.04,-18.28,-9.6,0.75,2025-03-12T10:25:11.185581,978.27,-107.91,-253.42,-34.76,7.32,8.11,-100.44,-4.82,-32.43,2025-03-12T10:25:11.185581
364.75,-40.28,955.81,-17.56,9.21,-46.59,-18.19,-9.53,0.98,2025-03-12T10:25:11.186485,977.54,-125.24,-249.02,-31.34,7.07,2.68,-100.46,-5.0,-31.55,2025-03-12T10:25:11.186485
347.9,117.19,912.84,-12.26,17.74,-55.24,-18.15,-9.56,1.19,2025-03-12T10:25:11.207071,986.57,-87.65,-248.29,-40.06,12.68,2.01,-100.46,-5.27,-30.92,2025-03-12T10:25:11.207071
358.64,71.29,942.87,-12.93,8.84,-71.65,-18.11,-9.55,1.36,2025-03-12T10:25:11.286209,958.98,-67.14,-257.81,-67.38,23.05,-0.18,-100.37,-5.57,-30.15,2025-03-12T10:25:11.286209
408.2,35.4,908.2,-20.85,10.3,-77.26,-18.18,-9.58,1.43,2025-03-12T10:25:11.286993,947.02,-125.98,-201.9,-83.78,29.51,0.0,-100.27,-5.99,-29.92,2025-03-12T10:25:11.286993
384.28,83.25,901.37,-22.13,19.27,-87.62,-18.28,-9.66,1.47,2025-03-12T10:25:11.310576,939.21,-106.2,-202.64,-76.83,31.16,-0.79,-100.16,-6.42,-29.66,2025-03-12T10:25:11.310576
409.18,128.42,840.58,-35.61,14.09,-107.93,-18.4,-9.76,1.41,2025-03-12T10:25:11.384062,978.76,-75.93,-182.13,-100.98,36.28,2.07,-99.97,-6.85,-29.66,2025-03-12T10:25:11.384062
419.68,25.39,880.37,-30.73,6.95,-121.34,-18.52,-9.88,1.32,2025-03-12T10:25:11.384961,931.88,-130.13,-122.07,-119.33,39.02,3.66,-99.7,-7.28,-29.47,2025-03-12T10:25:11.384961
406.74,-103.03,872.56,-30.67,20.73,-111.83,-18.64,-9.98,1.25,2025-03-12T10:25:11.415950,930.42,-148.68,-91.31,-104.63,33.6,2.93,-99.45,-7.76,-30.09,2025-03-12T10:25:11.415950
386.72,-43.21,766.36,-31.34,12.01,-94.7,-18.76,-10.05,1.15,2025-03-12T10:25:11.490418,895.26,-123.29,-32.71,-82.62,24.82,2.87,-99.26,-8.12,-30.12,2025-03-12T10:25:11.490418
437.74,-45.65,926.03,-24.94,-1.89,-84.02,-18.93,-10.25,1.03,2025-03-12T10:25:11.491315,949.46,-103.52,-43.21,-67.8,15.67,6.89,-99.09,-8.56,-30.37,2025-03-12T10:25:11.491315
237.55,-105.47,937.01,-20.91,-1.28,-74.88,-18.99,-10.48,0.98,2025-03-12T10:25:11.521417,1009.28,-54.93,-0.73,-75.06,14.02,9.63,-98.79,-8.75,-30.96,2025-03-12T10:25:11.521417
127.44,-116.7,883.54,-22.01,-4.7,-54.15,-18.94,-10.56,0.91,2025-03-12T10:25:11.593220,1072.02,18.55,59.08,-64.15,14.39,7.13,-98.6,-8.74,-29.76,2025-03-12T10:25:11.593220
443.36,-522.22,1428.96,-21.65,-19.57,-23.23,-18.92,-10.65,0.83,2025-03-12T10:25:11.594086,1054.2,-118.9,78.61,-42.74,8.35,9.76,-98.76,-8.92,-29.35,2025-03-12T10:25:11.594086
483.89,-79.83,1016.11,-70.12,-19.27,17.26,-19.06,-10.55,0.83,2025-03-12T10:25:11.697967,1001.71,-166.5,65.67,-3.72,-14.7,18.05,-99.18,-9.12,-30.48,2025-03-12T10:25:11.697967
397.95,-58.84,954.35,-73.35,-24.33,20.0,-19.15,-10.32,0.82,2025-03-12T10:25:11.699066,968.26,-34.42,-53.22,-2.8,-19.09,24.39,-99.58,-9.16,-30.06,2025-03-12T10:25:11.699066
408.45,-259.28,991.94,-61.59,-21.65,6.22,-19.22,-10.23,0.79,2025-03-12T10:25:11.699856,954.59,-190.92,-52.73,-31.65,-19.76,30.37,-100.2,-9.25,-29.53,2025-03-12T10:25:11.699856
388.67,-155.76,918.46,-11.83,-8.84,0.3,-19.2,-10.13,0.84,2025-03-12T10:25:11.730765,1005.62,-198.49,-114.01,18.96,-26.52,29.33,-100.71,-9.28,-30.14,2025-03-12T10:25:11.730765
405.76,-178.96,932.62,-12.38,-10.18,0.79,-19.25,-9.89,0.87,2025-03-12T10:25:11.794500,991.46,-217.53,-170.41,23.05,-21.59,28.05,-101.15,-9.18,-29.67,2025-03-12T10:25:11.794500
392.58,-143.8,911.38,-1.46,-1.95,-0.61,-19.27,-9.77,0.86,2025-03-12T10:25:11.800612,970.95,-178.71,-200.93,-1.4,-9.15,27.74,-101.59,-9.14,-29.78,2025-03-12T10:25:11.800612
390.14,-163.33,913.09,-2.8,1.22,3.11,-19.25,-9.64,0.89,2025-03-12T10:25:11.837671,971.19,-255.62,-151.61,2.32,-8.72,26.52,-101.96,-9.02,-30.34,2025-03-12T10:25:11.837671
390.62,-172.36,921.14,-3.84,1.89,4.33,-19.24,-9.41,0.89,2025-03-12T10:25:11.895251,951.42,-263.18,-136.47,17.2,-8.23,23.54,-102.32,-8.78,-30.02,2025-03-12T10:25:11.895251
379.64,-183.35,920.41,-2.26,0.85,4.33,-19.23,-9.25,0.91,2025-03-12T10:25:11.905907,971.68,-269.04,-91.06,8.66,-5.43,23.72,-102.66,-8.61,-30.06,2025-03-12T10:25:11.905907
395.75,-177.73,911.87,0.18,3.23,0.79,-19.2,-9.09,0.96,2025-03-12T10:25:11.940762,957.03,-329.1,-154.79,7.26,-3.66,18.78,-103.02,-8.36,-30.15,2025-03-12T10:25:11.940762
376.71,-161.13,922.85,-0.79,2.38,1.28,-19.19,-8.87,1.0,2025-03-12T10:25:11.998898,947.75,-351.81,-133.79,7.68,-1.95,15.06,-103.39,-8.08,-29.7,2025-03-12T10:25:11.998898
360.35,-164.55,919.92,-1.59,2.56,0.12,-19.18,-8.6,1.09,2025-03-12T10:25:12.010740,944.82,-316.41,-119.63,6.83,-0.18,11.4,-103.79,-7.79,-29.42,2025-03-12T10:25:12.010740
379.64,-158.45,920.65,-1.83,1.46,-0.85,-19.12,-8.16,1.23,2025-03-12T10:25:12.046113,949.22,-329.35,-139.65,-3.84,2.44,6.59,-104.18,-7.53,-29.02,2025-03-12T10:25:12.046113
379.39,-172.61,915.04,-2.01,0.79,-1.28,-19.21,-7.59,1.59,2025-03-12T10:25:12.100952,970.21,-322.27,-147.46,-11.34,4.7,2.38,-104.5,-7.25,-28.15,2025-03-12T10:25:12.100952
368.65,-168.7,926.27,-2.68,1.1,-1.28,-19.23,-6.67,2.52,2025-03-12T10:25:12.115963,933.59,-326.66,-130.62,-18.84,7.5,0.3,-104.49,-7.14,-26.85,2025-03-12T10:25:12.115963
376.46,-155.27,910.64,-2.5,2.26,-1.71,-19.55,-6.22,4.65,2025-03-12T10:25:12.150943,931.88,-268.07,-114.5,-15.12,8.35,-3.17,-104.06,-7.3,-25.55,2025-03-12T10:25:12.150943
363.28,-174.8,920.41,-4.39,3.6,-2.13,-20.16,-5.64,7.38,2025-03-12T10:25:12.202441,959.23,-308.59,-87.65,-20.37,7.07,-2.26,-103.53,-7.43,-23.76,2025-03-12T10:25:12.202441
368.65,-174.07,917.48,-2.87,4.76,-2.87,-20.45,-4.59,10.21,2025-03-12T10:25:12.220994,952.64,-295.17,-104.0,-15.73,6.16,-3.17,-103.23,-7.38,-22.04,2025-03-12T10:25:12.220994
368.9,-172.85,925.54,-1.89,3.35,-1.59,-20.54,-4.53,12.48,2025-03-12T10:25:12.255776,964.11,-284.18,-91.55,-13.9,4.02,-4.39,-103.17,-7.32,-20.77,2025-03-12T10:25:12.255776
371.83,-171.39,920.17,-1.28,3.66,-2.01,-20.15,-4.4,14.17,2025-03-12T10:25:12.305142,962.65,-264.4,-56.88,-15.06,2.68,-4.39,-103.04,-7.15,-19.68,2025-03-12T10:25:12.305142
363.53,-182.13,921.39,0.0,4.82,-2.93,-19.7,-3.91,16.26,2025-03-12T10:25:12.325809,973.63,-250.49,-35.89,-20.37,-0.73,-2.07,-102.74,-6.83,-18.1,2025-03-12T10:25:12.325809
364.99,-174.32,917.72,1.16,3.29,-2.87,-19.52,-3.45,18.82,2025-03-12T10:25:12.361620,956.05,-258.3,-103.03,-3.17,-7.74,-3.35,-102.18,-6.23,-15.56,2025-03-12T10:25:12.361620
349.85,-181.64,933.84,1.16,2.07,-2.01,-19.34,-3.18,21.68,2025-03-12T10:25:12.405827,958.74,-276.37,-82.76,-9.7,-9.39,-2.8,-101.42,-5.67,-12.77,2025-03-12T10:25:12.405827
351.07,-160.4,925.54,1.59,2.8,-3.35,-18.84,-2.93,25.0,2025-03-12T10:25:12.430775,958.74,-256.59,-77.88,-11.28,-10.37,-2.38,-100.57,-5.11,-9.94,2025-03-12T10:25:12.430775
343.51,-179.44,929.44,2.5,1.28,-4.39,-18.63,-2.72,29.1,2025-03-12T10:25:12.509077,986.33,-309.57,-109.38,-7.44,-16.22,-2.2,-99.56,-4.56,-6.2,2025-03-12T10:25:12.509077
364.01,-166.5,928.71,3.48,0.91,-5.98,-18.61,-2.46,33.46,2025-03-12T10:25:12.509956,953.86,-292.48,-202.88,-4.27,-14.09,-6.4,-98.52,-4.07,-2.14,2025-03-12T10:25:12.509956
381.84,-132.81,920.9,2.99,1.4,-5.79,-18.14,-2.35,37.32,2025-03-12T10:25:12.535724,942.87,-252.93,-229.98,-23.54,-7.26,-8.9,-97.63,-3.7,1.31,2025-03-12T10:25:12.535724
377.2,-157.96,928.47,0.43,0.3,-3.35,-18.0,-2.41,40.69,2025-03-12T10:25:12.612901,984.38,-304.44,-189.94,-25.0,-5.0,-11.4,-96.99,-3.49,4.08,2025-03-12T10:25:12.612901
363.28,-145.51,936.04,0.3,1.22,-3.72,-18.12,-2.3,43.66,2025-03-12T10:25:12.613572,968.99,-226.56,-168.7,-21.22,-3.05,-14.02,-96.59,-3.49,6.58,2025-03-12T10:25:12.613572
355.22,-125.73,937.01,-3.9,-5.43,-4.57,-18.27,-2.25,46.21,2025-03-12T10:25:12.640998,969.48,-218.26,-176.27,-9.21,2.8,-13.72,-96.17,-3.52,9.19,2025-03-12T10:25:12.640998
389.4,-151.37,947.02,-5.37,-4.27,-5.0,-18.59,-2.57,48.09,2025-03-12T10:25:12.715238,975.34,-228.52,-134.28,-1.46,1.1,-13.9,-95.75,-3.5,11.31,2025-03-12T10:25:12.715238
336.67,-145.26,894.04,29.02,7.32,-12.07,-18.81,-3.08,48.63,2025-03-12T10:25:12.715828,1003.42,-213.38,-225.1,7.93,0.49,-12.01,-95.62,-3.8,12.64,2025-03-12T10:25:12.715828
439.94,49.32,1023.19,19.63,-4.94,-16.77,-19.28,-5.5,48.8,2025-03-12T10:25:12.746616,838.38,-150.15,-283.94,-15.06,2.56,-14.82,-96.17,-4.51,12.63,2025-03-12T10:25:12.746616
400.15,631.84,1241.7,-19.82,12.87,-85.24,-20.23,-8.1,49.11,2025-03-12T10:25:12.822162,1015.62,81.54,-328.86,-55.79,6.04,-6.1,-96.9,-5.37,13.24,2025-03-12T10:25:12.822162
523.93,424.8,1218.99,1.89,-3.96,-186.59,-21.28,-10.07,49.74,2025-03-12T10:25:12.822861,1012.45,45.65,-477.78,-151.46,23.96,3.78,-97.76,-6.38,14.11,2025-03-12T10:25:12.822861
542.24,-79.35,802.25,-10.85,32.8,-204.45,-21.6,-10.39,49.85,2025-03-12T10:25:12.912341,970.95,-245.36,-291.02,-224.02,45.37,10.67,-98.57,-7.55,13.44,2025-03-12T10:25:12.912341
492.68,-123.29,769.29,-24.15,12.07,-153.11,-21.84,-10.62,49.95,2025-03-12T10:25:12.918292,970.46,-373.05,-145.02,-141.46,23.05,-0.12,-99.19,-8.62,13.01,2025-03-12T10:25:12.918292
524.17,-201.17,771.48,-13.05,-20.18,-100.43,-22.0,-10.76,49.99,2025-03-12T10:25:12.921568,915.28,-206.05,-231.2,-91.34,6.89,-0.49,-99.55,-9.58,13.38,2025-03-12T10:25:12.921568
552.25,-131.35,967.77,-17.13,-1.95,-79.94,-21.96,-10.89,49.91,2025-03-12T10:25:12.957088,882.08,-239.26,-178.96,-102.62,6.83,4.45,-99.83,-10.54,13.26,2025-03-12T10:25:12.957088
459.47,-88.13,845.46,-18.66,-7.2,-79.33,-21.88,-11.03,49.78,2025-03-12T10:25:13.019918,894.04,-243.9,-130.62,-79.76,3.29,5.24,-100.01,-11.48,12.79,2025-03-12T10:25:13.019918
407.47,-222.41,823.73,-14.09,-13.66,-62.38,-21.8,-11.12,49.68,2025-03-12T10:25:13.026450,925.78,-192.38,-93.26,-65.18,1.52,9.02,-100.14,-12.35,12.7,2025-03-12T10:25:13.026450
373.78,-268.31,868.65,-1.34,-15.37,-26.34,-21.69,-11.11,49.65,2025-03-12T10:25:13.061341,920.41,-271.48,-77.88,-32.44,-5.67,10.0,-100.2,-13.03,12.61,2025-03-12T10:25:13.061341
321.78,-160.64,912.11,2.62,-9.33,-3.78,-21.6,-11.14,49.62,2025-03-12T10:25:13.124673,960.45,-186.52,-82.52,15.18,-13.41,4.45,-100.2,-13.61,12.38,2025-03-12T10:25:13.124673
270.02,-108.64,974.12,-6.46,-9.88,3.78,-21.52,-11.19,49.64,2025-03-12T10:25:13.131505,964.6,-104.49,-135.74,17.38,-7.62,2.8,-100.14,-14.05,12.21,2025-03-12T10:25:13.131505
264.16,-40.77,886.47,-17.62,-6.71,5.0,-21.48,-11.22,49.68,2025-03-12T10:25:13.166678,953.86,-89.36,-132.81,-11.71,5.06,4.45,-100.09,-14.25,12.47,2025-03-12T10:25:13.166678
284.18,-12.45,832.03,-29.51,-13.05,0.49,nan,nan,nan,2025-03-12T10:25:13.228925,961.91,-102.78,-133.79,-26.71,11.83,7.07,-100.01,-14.26,12.98,2025-03-12T10:25:13.228925
228.52,-150.88,1054.93,-36.77,-60.67,1.04,-21.43,-11.32,49.82,2025-03-12T10:25:13.236331,972.17,-111.33,-111.33,-48.48,18.41,8.29,-99.87,-14.17,13.53,2025-03-12T10:25:13.236331
187.5,63.72,836.91,-76.52,21.16,-15.0,-21.36,-11.37,49.9,2025-03-12T10:25:13.271398,1040.28,78.12,-150.63,-76.46,34.82,3.6,-99.7,-14.0,14.1,2025-03-12T10:25:13.271398
494.63,50.54,823.97,-85.43,17.2,5.79,-21.25,-11.47,50.03,2025-03-12T10:25:13.329515,927.49,-119.63,-141.36,-78.78,17.56,6.95,-99.58,-13.82,14.75,2025-03-12T10:25:13.329515
364.75,-113.04,985.84,-61.46,-6.65,18.66,-21.12,-11.51,50.15,2025-03-12T10:25:13.342079,1081.05,-59.57,-91.8,-18.41,-5.98,7.38,-99.49,-13.63,15.25,2025-03-12T10:25:13.342079
406.25,-164.55,948.97,-47.99,-15.0,13.78,-21.01,-11.54,50.21,2025-03-12T10:25:13.376373,1042.48,-124.02,-38.82,16.28,-12.13,9.02,-99.46,-13.46,15.62,2025-03-12T10:25:13.376373
396.48,-260.25,930.91,-18.41,-2.56,0.61,-20.88,-11.54,50.29,2025-03-12T10:25:13.431806,951.9,-109.86,-43.7,-2.13,-12.62,17.8,-99.49,-13.24,16.24,2025-03-12T10:25:13.431806
411.87,-174.8,913.33,-5.43,4.15,-6.59,-11.84,-20.55,-12.53,2025-03-12T10:25:13.446313,977.05,-154.05,-148.44,-20.98,-8.66,23.41,-99.65,-13.08,16.78,2025-03-12T10:25:13.446313
355.22,-149.17,919.43,-2.01,3.41,-3.6,nan,nan,nan,2025-03-12T10:25:13.479950,977.05,-205.57,-170.9,3.6,-19.94,22.01,-99.94,-12.96,16.87,2025-03-12T10:25:13.479950
402.83,-144.78,909.42,0.06,3.9,-2.62,-20.58,-11.32,50.49,2025-03-12T10:25:13.534981,954.59,-207.76,-216.31,42.62,-20.55,16.77,-100.32,-12.84,17.16,2025-03-12T10:25:13.534981
393.31,-173.1,917.24,-0.43,3.72,-1.95,-20.51,-11.21,50.57,2025-03-12T10:25:13.550230,960.94,-152.34,-203.37,9.51,-13.17,21.04,-100.78,-12.72,17.63,2025-03-12T10:25:13.550230
384.28,-152.34,922.85,0.0,1.52,-1.34,-20.48,-11.04,50.68,2025-03-12T10:25:13.584130,968.75,-207.76,-178.96,3.35,-13.54,21.89,-101.33,-12.62,17.72,2025-03-12T10:25:13.584130
366.7,-163.33,911.38,-0.18,2.68,-1.22,-20.47,-10.84,50.83,2025-03-12T10:25:13.636996,941.65,-214.84,-175.29,12.2,-18.78,22.13,-101.83,-12.34,17.96,2025-03-12T10:25:13.636996
389.4,-163.09,912.6,1.34,6.77,-2.8,-20.46,-10.69,50.96,2025-03-12T10:25:13.653891,925.29,-247.8,-200.68,23.54,-19.88,20.79,-102.23,-11.87,18.82,2025-03-12T10:25:13.653891
373.78,-173.58,902.1,0.91,4.82,-2.38,-20.45,-10.63,51.06,2025-03-12T10:25:13.689285,954.59,-265.62,-224.37,20.37,-20.43,21.59,-102.51,-11.3,19.52,2025-03-12T10:25:13.689285
354.49,-171.88,923.58,-2.5,1.71,-1.83,-20.45,-10.57,51.19,2025-03-12T10:25:13.736832,946.04,-389.89,-263.92,23.23,-19.39,19.27,-102.62,-10.69,20.01,2025-03-12T10:25:13.736832
388.43,-159.42,920.17,1.22,3.66,-2.44,-20.66,-10.64,51.4,2025-03-12T10:25:13.761528,960.69,-376.46,-373.05,31.34,-16.1,11.1,-102.52,-10.17,20.22,2025-03-12T10:25:13.761528
369.63,-160.16,921.39,0.55,2.2,-1.59,-20.8,-10.65,51.64,2025-03-12T10:25:13.793866,936.52,-412.84,-425.78,4.27,1.83,5.61,-102.42,-9.73,20.08,2025-03-12T10:25:13.793866
369.63,-149.41,924.8,-2.07,0.3,0.06,-20.84,-9.79,51.79,2025-03-12T10:25:13.842358,955.08,-423.58,-394.04,-4.63,18.05,-4.51,-102.36,-9.33,19.94,2025-03-12T10:25:13.842358
373.29,-164.06,917.97,-2.87,-0.37,0.18,-20.73,-8.62,52.34,2025-03-12T10:25:13.863817,922.85,-354.49,-321.53,-10.85,28.6,-11.83,-102.37,-8.75,20.63,2025-03-12T10:25:13.863817
365.48,-157.23,925.05,-3.6,0.0,1.1,-20.48,-8.27,56.28,2025-03-12T10:25:13.936081,909.67,-294.68,-270.75,-10.06,37.44,-16.65,-102.41,-7.91,23.32,2025-03-12T10:25:13.936081
359.38,-166.02,924.07,-3.72,0.3,2.26,-17.65,-13.68,17.59,2025-03-12T10:25:13.943549,919.92,-259.03,-224.61,-5.98,41.46,-17.68,-102.14,-6.78,29.5,2025-03-12T10:25:13.943549
380.86,-155.52,920.65,-7.01,0.43,4.02,0.0,0.0,0.0,2025-03-12T10:25:13.971558,909.91,-254.15,-180.42,-0.12,43.41,-22.56,-101.51,-5.64,36.88,2025-03-12T10:25:13.971558
355.96,-173.83,921.63,-8.6,1.52,4.45,-21.26,-3.03,76.76,2025-03-12T10:25:14.051701,976.32,-142.33,-4.15,-22.44,43.96,-15.61,-101.26,-4.85,41.03,2025-03-12T10:25:14.051701
366.46,-183.11,908.94,-6.77,-0.3,5.12,-22.19,-2.27,79.96,2025-03-12T10:25:14.051899,927.73,-117.43,274.41,-22.62,22.07,-9.02,-101.29,-4.28,44.31,2025-03-12T10:25:14.051899
300.05,-225.34,931.64,3.11,-0.37,-1.16,-22.6,-1.8,82.75,2025-03-12T10:25:14.151815,1008.54,-240.72,181.15,34.94,-11.4,-1.1,-101.33,-3.85,47.7,2025-03-12T10:25:14.151815
367.43,-195.31,916.02,7.93,1.52,-4.21,-22.97,-1.39,85.47,2025-03-12T10:25:14.152686,952.88,-188.96,-154.3,42.74,-15.24,1.59,-101.41,-3.62,50.3,2025-03-12T10:25:14.152686
376.95,-143.07,916.26,4.27,0.3,-2.8,-23.5,-1.14,87.35,2025-03-12T10:25:14.153208,992.43,-220.7,-201.9,0.79,-10.37,2.44,-101.49,-3.6,52.42,2025-03-12T10:25:14.153208
364.99,-164.55,916.75,1.52,0.43,-1.04,-23.92,-0.94,87.93,2025-03-12T10:25:14.182034,948.49,-227.54,-140.87,-13.23,-3.9,0.85,-101.77,-3.83,53.13,2025-03-12T10:25:14.182034
360.35,-159.18,922.61,0.73,1.4,-1.52,-24.25,-0.91,87.96,2025-03-12T10:25:14.231675,973.88,-236.82,-131.1,-10.3,-3.23,-0.3,-102.15,-4.15,52.49,2025-03-12T10:25:14.231675
360.84,-163.82,927.73,1.59,1.59,-1.04,-24.43,-1.3,87.94,2025-03-12T10:25:14.251434,958.25,-209.72,-99.61,-17.5,-2.99,1.59,-102.25,-4.35,52.14,2025-03-12T10:25:14.251434
364.5,-174.32,923.83,2.2,2.13,-1.52,-24.68,-2.08,88.12,2025-03-12T10:25:14.287980,962.89,-217.04,-60.3,-10.49,-8.05,2.68,-102.01,-4.4,52.73,2025-03-12T10:25:14.287980
322.51,-168.46,926.51,2.38,0.61,-1.77,-25.48,-3.13,88.63,2025-03-12T10:25:14.334972,967.04,-228.76,-59.57,-0.91,-14.94,7.2,-101.58,-4.44,53.81,2025-03-12T10:25:14.334972
360.11,-174.32,919.43,3.72,0.61,-2.26,-25.23,-3.44,89.41,2025-03-12T10:25:14.356843,970.7,-212.4,-130.62,13.11,-20.24,5.85,-100.94,-4.24,55.76,2025-03-12T10:25:14.356843
355.47,-167.24,934.33,3.35,1.28,-3.35,-24.19,-5.94,90.76,2025-03-12T10:25:14.391873,959.23,-198.97,-131.35,-12.07,-17.93,9.21,-99.95,-3.83,58.71,2025-03-12T10:25:14.391873
342.29,-169.68,930.18,3.29,1.34,-4.15,-23.91,-8.64,91.63,2025-03-12T10:25:14.437902,982.18,-283.69,-163.57,-8.78,-20.85,12.26,-99.74,-3.73,60.99,2025-03-12T10:25:14.437902
347.41,-152.83,923.58,2.38,1.28,-4.15,-24.22,-10.66,91.8,2025-03-12T10:25:14.463630,946.29,-276.37,-255.37,7.68,-22.07,7.99,-99.98,-3.94,61.28,2025-03-12T10:25:14.463630
357.42,-150.15,930.18,0.91,1.28,-3.9,-24.72,-12.12,92.06,2025-03-12T10:25:14.536810,946.04,-310.3,-328.37,-8.9,-11.16,6.71,-100.36,-4.43,60.83,2025-03-12T10:25:14.536810
365.23,-144.04,926.03,0.24,0.24,-1.59,-24.7,-12.53,92.33,2025-03-12T10:25:14.539739,933.35,-368.16,-370.61,4.21,-2.8,-0.55,-100.75,-5.1,61.2,2025-03-12T10:25:14.539739
362.79,-159.18,935.3,-0.06,1.28,0.12,-24.59,-12.57,92.58,2025-03-12T10:25:14.567361,957.76,-339.36,-336.91,0.67,8.41,-7.01,-101.2,-5.8,62.01,2025-03-12T10:25:14.567361
352.05,-151.61,930.18,-0.98,1.34,0.67,-24.47,-12.53,92.69,2025-03-12T10:25:14.642534,949.22,-271.24,-267.09,-8.41,20.85,-9.76,-101.86,-6.67,61.6,2025-03-12T10:25:14.642534
346.19,-155.03,935.79,-2.62,-0.55,2.07,-24.34,-12.5,92.73,2025-03-12T10:25:14.643230,979.0,-262.21,-225.59,-0.37,23.78,-11.34,-102.41,-7.58,60.44,2025-03-12T10:25:14.643230
353.76,-147.71,935.55,-5.0,-1.89,3.48,-24.26,-12.42,92.76,2025-03-12T10:25:14.673841,946.78,-238.53,-202.15,2.87,25.43,-13.17,-102.84,-8.37,60.41,2025-03-12T10:25:14.673841
358.4,-157.96,930.91,-6.22,-0.55,3.54,-24.18,-12.39,92.78,2025-03-12T10:25:14.748948,956.05,-220.7,-141.85,-10.67,30.12,-11.59,-103.34,-9.17,60.4,2025-03-12T10:25:14.748948
351.32,-166.26,934.81,-7.5,-0.79,3.66,-24.04,-12.34,92.82,2025-03-12T10:25:14.749606,977.78,-231.45,-59.57,-4.82,26.04,-10.61,-103.92,-10.07,59.98,2025-03-12T10:25:14.749606
346.68,-183.35,927.98,-6.22,0.06,3.11,-23.81,-12.25,92.86,2025-03-12T10:25:14.776751,960.21,-171.63,-9.77,-0.43,18.72,-10.73,-104.5,-11.03,59.35,2025-03-12T10:25:14.776751
338.62,-186.04,920.17,-2.93,-0.61,1.59,-23.66,-12.21,92.92,2025-03-12T10:25:14.845024,958.98,-171.63,38.33,0.49,11.34,-4.63,-105.09,-11.95,58.91,2025-03-12T10:25:14.845024
340.58,-180.42,930.91,-0.37,-2.13,0.43,-23.57,-12.2,93.0,2025-03-12T10:25:14.846108,973.14,-200.68,-10.01,13.6,-0.3,-1.95,-105.59,-12.87,58.08,2025-03-12T10:25:14.846108
352.78,-178.71,922.61,1.46,-0.55,-0.55,-23.45,-12.12,93.04,2025-03-12T10:25:14.881619,969.73,-192.63,-88.38,7.2,-3.05,-0.98,-105.85,-13.44,57.39,2025-03-12T10:25:14.881619
351.32,-177.73,928.71,1.4,-0.49,-0.98,-23.38,-12.09,93.06,2025-03-12T10:25:14.951515,983.15,-222.41,-89.36,-9.94,-1.52,0.73,-105.64,-13.55,57.42,2025-03-12T10:25:14.951515
349.12,-175.05,922.12,1.77,-0.12,-1.46,-23.35,-12.15,93.08,2025-03-12T10:25:14.952371,966.8,-207.52,-84.96,-3.6,-3.29,0.24,-104.99,-13.29,57.6,2025-03-12T10:25:14.952371
353.76,-175.54,918.7,2.32,-0.73,-0.85,-23.34,-12.24,93.09,2025-03-12T10:25:14.989994,971.44,-222.9,-114.01,2.26,-4.82,0.55,-104.0,-12.8,57.85,2025-03-12T10:25:14.989994
350.59,-168.46,925.54,2.5,-0.12,-1.1,-23.32,-12.35,93.08,2025-03-12T10:25:15.054595,971.19,-218.51,-134.28,5.37,-3.6,0.24,-102.72,-12.17,58.09,2025-03-12T10:25:15.054595
357.91,-165.04,928.22,1.16,-0.43,-0.12,-23.28,-12.5,93.04,2025-03-12T10:25:15.056108,987.79,-223.39,-140.87,9.88,-2.99,-0.3,-101.27,-11.54,58.0,2025-03-12T10:25:15.056108
346.19,-171.63,925.05,0.12,0.3,-0.37,-23.22,-12.78,93.0,2025-03-12T10:25:15.091942,976.32,-190.19,-117.43,1.89,-0.06,-0.73,-99.77,-10.78,57.98,2025-03-12T10:25:15.091942
345.7,-184.57,920.41,-0.91,0.37,-0.67,-23.14,-13.11,92.96,2025-03-12T10:25:15.154419,979.0,-201.66,-74.22,-1.59,-1.34,-1.52,-98.43,-10.15,58.77,2025-03-12T10:25:15.154419
346.44,-176.03,925.54,0.3,-0.3,-0.67,-23.09,-13.3,92.86,2025-03-12T10:25:15.162026,982.67,-201.42,-73.73,2.62,-3.6,0.79,-97.86,-9.84,59.1,2025-03-12T10:25:15.162026
345.95,-178.96,928.96,0.85,-0.49,-1.22,-23.07,-13.09,92.85,2025-03-12T10:25:15.199201,979.74,-205.57,-112.79,3.41,-4.94,1.34,-97.94,-10.04,57.55,2025-03-12T10:25:15.199201
351.07,-163.82,930.66,0.85,0.18,-1.34,-23.01,-12.77,92.86,2025-03-12T10:25:15.256072,972.9,-208.5,-123.78,-2.32,-3.41,2.38,-98.27,-10.3,56.47,2025-03-12T10:25:15.256072
360.6,-161.13,922.36,0.67,-0.49,-0.67,-22.99,-12.61,92.88,2025-03-12T10:25:15.267240,978.52,-232.42,-135.25,4.21,-4.27,1.4,-98.62,-10.36,56.63,2025-03-12T10:25:15.267240
360.11,-161.87,930.66,-0.06,0.12,-0.55,-22.94,-12.53,92.89,2025-03-12T10:25:15.302446,968.02,-215.33,-142.82,1.71,-1.16,0.85,-98.83,-10.35,57.08,2025-03-12T10:25:15.302446
354.25,-166.5,927.73,-0.43,-0.06,-0.12,-22.88,-12.46,92.9,2025-03-12T10:25:15.361711,979.49,-230.96,-121.58,-3.11,0.37,0.55,-99.0,-10.29,57.52,2025-03-12T10:25:15.361711
357.42,-165.28,931.64,-0.61,-0.37,-0.37,-22.81,-12.38,92.9,2025-03-12T10:25:15.370943,973.14,-209.72,-131.35,3.35,0.61,0.37,-99.22,-10.29,58.13,2025-03-12T10:25:15.370943
357.18,-177.25,927.49,-1.1,-0.73,0.43,-22.71,-12.26,92.91,2025-03-12T10:25:15.405799,974.12,-220.7,-115.23,-1.28,1.34,-0.24,-99.57,-10.37,58.48,2025-03-12T10:25:15.405799
353.27,-172.12,928.71,-0.24,0.0,-0.06,-22.67,-12.13,92.91,2025-03-12T10:25:15.463719,965.09,-209.72,-114.5,-3.48,2.32,-0.18,-100.09,-10.66,58.3,2025-03-12T10:25:15.463719
357.67,-158.94,930.66,-0.3,-0.91,0.24,-22.62,-11.96,92.94,2025-03-12T10:25:15.478756,976.07,-236.08,-110.84,-0.91,1.4,0.18,-100.72,-10.95,58.09,2025-03-12T10:25:15.478756
359.62,-184.33,924.32,-0.73,-0.49,0.06,-22.57,-11.79,92.98,2025-03-12T10:25:15.511284,975.59,-220.95,-120.36,1.04,1.71,-0.73,-101.44,-11.21,58.65,2025-03-12T10:25:15.511284
353.52,-172.12,928.47,-0.67,-0.12,0.0,-22.52,-11.61,93.07,2025-03-12T10:25:15.565047,971.19,-227.54,-110.84,-4.33,3.29,-0.18,-102.22,-11.6,58.84,2025-03-12T10:25:15.565047
360.11,-181.15,929.69,-1.16,-0.55,0.3,-22.47,-11.48,93.16,2025-03-12T10:25:15.583574,974.85,-214.11,-111.33,-0.79,2.32,-0.98,-102.93,-11.91,58.78,2025-03-12T10:25:15.583574
349.37,-169.92,926.51,-0.79,-0.55,0.18,-22.44,-11.38,93.25,2025-03-12T10:25:15.616046,967.29,-220.95,-100.83,-1.65,2.99,-0.37,-103.34,-12.1,59.04,2025-03-12T10:25:15.616046
354.74,-169.19,925.05,-0.73,-0.43,0.3,-22.41,-11.35,93.26,2025-03-12T10:25:15.664673,969.73,-205.08,-95.21,-2.26,2.62,-1.16,-103.37,-12.11,58.9,2025-03-12T10:25:15.664673
358.4,-177.0,918.21,-0.79,-0.55,0.24,-22.34,-11.33,93.24,2025-03-12T10:25:15.686016,975.83,-227.29,-99.61,-1.59,2.44,-0.85,-103.0,-11.86,58.9,2025-03-12T10:25:15.686016
350.1,-166.99,927.49,-0.91,0.06,0.12,-22.28,-11.36,93.22,2025-03-12T10:25:15.723650,972.41,-204.1,-95.21,-2.8,2.38,-1.77,-102.28,-11.48,59.11,2025-03-12T10:25:15.723650
351.07,-161.38,929.69,-0.3,-0.37,-0.06,-22.27,-11.47,93.17,2025-03-12T10:25:15.767512,971.19,-224.85,-91.55,-4.82,2.68,-0.55,-101.42,-11.09,58.95,2025-03-12T10:25:15.767512
350.59,-180.18,926.51,-0.55,-0.3,0.3,-22.3,-11.67,93.11,2025-03-12T10:25:15.790492,968.99,-207.03,-86.91,-0.12,1.1,-1.71,-100.48,-10.65,58.9,2025-03-12T10:25:15.790492
352.78,-172.61,929.44,-0.06,-0.3,0.06,-22.29,-11.92,93.07,2025-03-12T10:25:15.870866,972.41,-220.95,-89.6,-1.28,1.16,-0.67,-99.46,-10.22,59.2,2025-03-12T10:25:15.870866
353.76,-181.15,920.65,-0.24,-0.43,0.06,-22.27,-12.19,93.03,2025-03-12T10:25:15.871729,973.39,-207.52,-89.6,0.67,0.12,-1.65,-98.58,-9.84,59.23,2025-03-12T10:25:15.871729
347.9,-171.88,924.56,0.55,0.06,-0.18,-22.25,-12.39,93.0,2025-03-12T10:25:15.895842,971.68,-211.91,-88.62,-1.95,0.85,-0.55,-97.88,-9.52,59.22,2025-03-12T10:25:15.895842
347.9,-174.07,922.61,0.06,-0.43,-0.12,-22.26,-12.48,92.97,2025-03-12T10:25:15.972598,979.74,-216.55,-85.21,1.65,-0.85,-0.98,-97.49,-9.41,59.05,2025-03-12T10:25:15.972598
356.93,-173.58,930.66,0.55,-0.06,-0.61,-22.3,-12.47,92.96,2025-03-12T10:25:15.972976,976.32,-207.28,-90.33,-3.05,0.37,0.06,-97.43,-9.44,58.54,2025-03-12T10:25:15.972976
354.74,-178.71,923.83,-0.12,0.18,-0.43,-22.3,-12.39,92.94,2025-03-12T10:25:16.092798,976.07,-208.74,-85.69,1.1,-1.28,-0.67,-97.48,-9.44,58.5,2025-03-12T10:25:16.092798
354.0,-171.14,928.47,0.18,-0.55,-0.18,-22.29,-12.32,92.95,2025-03-12T10:25:16.093666,974.37,-217.29,-95.21,0.79,-0.98,0.55,-97.59,-9.45,58.78,2025-03-12T10:25:16.093666
350.34,-175.29,928.22,-0.06,0.0,-0.24,-22.28,-12.22,92.95,2025-03-12T10:25:16.094282,979.25,-198.24,-84.23,-0.18,-1.4,0.06,-97.71,-9.47,58.86,2025-03-12T10:25:16.094282
350.83,-162.11,928.22,0.43,0.0,-0.73,-22.28,-12.12,92.93,2025-03-12T10:25:16.105504,976.32,-217.04,-80.32,-2.26,-0.85,1.65,-97.84,-9.52,58.75,2025-03-12T10:25:16.105504
349.12,-181.15,927.98,-0.12,-0.67,-0.43,-22.27,-12.02,92.92,2025-03-12T10:25:16.176648,968.02,-215.09,-89.84,6.52,-4.15,0.43,-97.93,-9.59,58.54,2025-03-12T10:25:16.176648
357.91,-168.21,922.61,0.3,-0.43,-0.61,-22.26,-11.98,92.9,2025-03-12T10:25:16.177551,976.32,-212.4,-102.29,1.71,-2.01,1.71,-97.97,-9.63,58.22,2025-03-12T10:25:16.177551
352.54,-177.25,925.29,0.06,0.0,-0.37,-22.25,-11.95,92.9,2025-03-12T10:25:16.211507,968.75,-217.53,-105.96,-0.43,-2.5,1.4,-97.95,-9.62,58.21,2025-03-12T10:25:16.211507
356.69,-170.9,925.29,0.18,-0.37,-0.85,-22.23,-11.95,92.91,2025-03-12T10:25:16.278736,974.61,-227.54,-112.3,1.46,-1.52,1.77,-97.99,-9.61,58.23,2025-03-12T10:25:16.278736
353.03,-179.2,925.54,-0.24,0.0,-0.24,-22.23,-11.91,92.92,2025-03-12T10:25:16.280251,970.46,-221.68,-100.83,0.85,-1.4,1.1,-98.09,-9.68,58.13,2025-03-12T10:25:16.280251
351.32,-166.26,928.47,-0.3,-0.24,-0.12,-22.22,-11.84,92.93,2025-03-12T10:25:16.315678,974.85,-233.15,-100.59,-3.41,-0.06,1.52,-98.23,-9.76,58.09,2025-03-12T10:25:16.315678
356.45,-177.0,922.12,-0.73,-0.24,-0.06,-22.21,-11.79,92.95,2025-03-12T10:25:16.383776,974.85,-213.62,-99.61,-0.24,-0.18,1.28,-98.36,-9.85,58.16,2025-03-12T10:25:16.383776
354.49,-171.88,925.05,-0.67,-0.98,-0.18,-22.2,-11.76,92.95,2025-03-12T10:25:16.385548,972.41,-237.06,-108.15,1.71,-0.24,0.91,-98.46,-9.94,57.98,2025-03-12T10:25:16.385548
352.05,-177.25,924.8,-0.61,0.06,-0.55,-22.19,-11.74,92.96,2025-03-12T10:25:16.420975,973.63,-218.51,-99.37,-3.72,1.4,1.04,-98.48,-9.98,58.01,2025-03-12T10:25:16.420975
352.05,-174.32,921.88,-0.98,-0.18,-0.18,-22.17,-11.74,92.96,2025-03-12T10:25:16.488413,975.1,-225.59,-99.12,-2.99,0.91,0.24,-98.46,-10.01,58.04,2025-03-12T10:25:16.488413
349.61,-179.2,925.29,-0.43,0.0,-0.12,-22.17,-11.75,92.96,2025-03-12T10:25:16.491257,969.73,-223.39,-98.63,-0.98,0.61,0.12,-98.41,-10.05,57.97,2025-03-12T10:25:16.491257
354.0,-176.51,927.0,-0.61,0.06,-0.37,-22.17,-11.76,92.95,2025-03-12T10:25:16.537940,973.39,-224.85,-104.49,-0.85,0.91,-0.18,-98.35,-10.05,58.03,2025-03-12T10:25:16.537940
355.47,-180.66,925.78,-1.22,-0.18,-0.12,-22.16,-11.76,92.94,2025-03-12T10:25:16.586318,970.95,-230.71,-101.07,-2.38,1.16,-0.85,-98.28,-10.05,58.16,2025-03-12T10:25:16.586318
353.52,-176.03,926.76,-1.16,0.3,-0.43,-22.16,-11.76,92.93,2025-03-12T10:25:16.595918,966.31,-217.77,-88.87,-7.2,2.68,-0.79,-98.22,-10.08,58.15,2025-03-12T10:25:16.595918
350.1,-169.92,927.49,-0.55,0.0,-0.18,-22.16,-11.76,92.91,2025-03-12T10:25:16.631425,980.71,-246.83,-97.9,-2.99,1.77,-1.65,-98.13,-10.07,58.17,2025-03-12T10:25:16.631425
354.25,-172.61,925.54,-0.85,0.12,0.06,-22.15,-11.77,92.91,2025-03-12T10:25:16.690524,974.37,-224.85,-107.91,-6.46,3.05,-3.29,-98.04,-10.06,58.29,2025-03-12T10:25:16.690524
356.2,-173.1,928.47,-0.61,0.3,-0.67,-22.15,-11.8,92.9,2025-03-12T10:25:16.705944,971.92,-240.72,-86.91,-10.49,3.66,-2.44,-97.93,-10.04,58.32,2025-03-12T10:25:16.705944
351.07,-172.36,927.0,-0.37,0.43,-0.12,-22.15,-11.81,92.89,2025-03-12T10:25:16.738508,976.32,-216.06,-77.39,0.18,1.65,-3.11,-97.83,-10.03,58.37,2025-03-12T10:25:16.738508
348.63,-180.18,922.61,0.37,-0.43,0.06,-22.14,-11.83,92.88,2025-03-12T10:25:16.793810,975.59,-218.26,-77.88,2.44,0.67,-2.32,-97.73,-10.0,58.46,2025-03-12T10:25:16.793810
349.37,-183.35,927.49,0.67,-0.37,-0.3,-22.14,-11.85,92.87,2025-03-12T10:25:16.809454,979.74,-193.12,-80.32,3.11,-0.3,-1.34,-97.65,-9.98,58.49,2025-03-12T10:25:16.809454
346.19,-181.88,927.25,0.73,-0.3,0.06,-22.12,-11.86,92.87,2025-03-12T10:25:16.841027,976.07,-204.1,-63.23,5.06,-2.07,0.91,-97.56,-9.93,58.64,2025-03-12T10:25:16.841027
347.66,-178.96,926.03,1.4,-0.98,-0.12,-22.12,-11.87,92.87,2025-03-12T10:25:16.894824,975.1,-186.77,-75.93,12.07,-4.63,2.01,-97.49,-9.91,58.73,2025-03-12T10:25:16.894824
357.42,-177.98,930.18,1.34,-1.34,-0.18,-22.11,-11.87,92.85,2025-03-12T10:25:16.913603,980.96,-195.8,-87.4,4.15,-4.02,4.02,-97.43,-9.87,58.76,2025-03-12T10:25:16.913603
356.45,-173.58,931.88,0.85,-1.34,-0.18,-22.1,-11.86,92.85,2025-03-12T10:25:16.947430,981.93,-245.36,-110.35,7.99,-4.57,3.6,-97.39,-9.87,58.76,2025-03-12T10:25:16.947430
355.22,-175.29,924.07,0.12,-0.79,-0.55,-22.09,-11.85,92.84,2025-03-12T10:25:16.996064,968.02,-216.06,-106.69,0.3,-2.32,3.72,-97.36,-9.84,58.78,2025-03-12T10:25:16.996064
352.78,-164.06,925.29,0.06,-0.79,-0.12,-22.08,-11.82,92.82,2025-03-12T10:25:17.016029,976.81,-258.06,-111.08,4.57,-1.71,2.93,-97.34,-9.84,58.8,2025-03-12T10:25:17.016029
349.61,-179.2,926.03,-0.3,-0.18,-0.49,-22.07,-11.81,92.82,2025-03-12T10:25:17.053360,981.93,-200.93,-108.4,0.24,0.61,2.2,-97.33,-9.83,58.77,2025-03-12T10:25:17.053360
357.42,-177.0,920.17,-1.04,-1.04,0.49,-22.06,-11.78,92.82,2025-03-12T10:25:17.098779,979.98,-250.0,-85.21,3.6,-0.49,2.38,-97.32,-9.84,58.85,2025-03-12T10:25:17.098779
352.29,-178.47,922.36,-0.61,-1.16,0.43,-22.04,-11.76,92.83,2025-03-12T10:25:17.122281,962.4,-214.11,-60.79,5.24,-1.28,2.38,-97.34,-9.85,58.8,2025-03-12T10:25:17.122281
355.96,-189.21,918.46,0.79,-0.91,-0.24,-22.05,-11.74,92.82,2025-03-12T10:25:17.155662,974.12,-231.45,-72.02,5.18,-3.29,2.74,-97.36,-9.88,58.77,2025-03-12T10:25:17.155662
356.69,-171.88,928.22,0.37,-0.43,-0.61,-22.03,-11.73,92.81,2025-03-12T10:25:17.200854,988.53,-253.42,-103.52,4.76,-3.35,3.05,-97.38,-9.91,58.81,2025-03-12T10:25:17.200854
358.15,-179.69,919.68,0.12,-0.06,-0.67,-22.03,-11.71,92.82,2025-03-12T10:25:17.225619,977.78,-231.2,-116.7,-2.2,-1.83,1.59,-97.43,-9.98,58.78,2025-03-12T10:25:17.225619
350.83,-161.62,924.56,-0.85,0.0,-0.37,-22.03,-11.7,92.82,2025-03-12T10:25:17.301141,961.67,-252.93,-113.04,-6.52,0.73,1.22,-97.5,-10.05,58.57,2025-03-12T10:25:17.301141
358.89,-179.44,921.63,-0.91,0.43,-0.49,-22.03,-11.66,92.83,2025-03-12T10:25:17.310413,961.91,-239.75,-112.79,-8.96,2.8,0.24,-97.57,-10.14,58.55,2025-03-12T10:25:17.310413
355.47,-170.41,927.25,-1.83,0.06,0.0,-22.02,-11.65,92.83,2025-03-12T10:25:17.330707,991.7,-261.23,-128.91,-4.88,3.41,-0.37,-97.64,-10.22,58.56,2025-03-12T10:25:17.330707
354.98,-188.72,923.1,-2.2,-0.06,0.55,-22.03,-11.63,92.84,2025-03-12T10:25:17.407077,967.04,-241.21,-96.44,-5.91,4.51,-1.95,-97.68,-10.3,58.5,2025-03-12T10:25:17.407077
351.32,-168.95,919.19,-1.77,-0.3,0.18,-22.02,-11.62,92.85,2025-03-12T10:25:17.407611,959.96,-240.48,-59.57,-1.34,3.54,-1.28,-97.69,-10.36,58.51,2025-03-12T10:25:17.407611
347.9,-191.41,928.47,0.06,-0.18,-0.18,-22.02,-11.62,92.85,2025-03-12T10:25:17.435719,969.97,-196.53,-46.63,1.59,0.61,0.18,-97.7,-10.41,58.6,2025-03-12T10:25:17.435719
355.71,-182.62,921.88,0.0,-0.49,-0.18,-22.02,-11.63,92.85,2025-03-12T10:25:17.512397,980.71,-243.65,-83.25,8.84,-2.62,0.85,-97.69,-10.48,58.61,2025-03-12T10:25:17.512397
353.76,-178.22,927.73,-0.43,-0.73,-0.3,-4.34,-39.15,116.61,2025-03-12T10:25:17.513184,980.22,-232.42,-102.29,-0.67,-0.79,0.98,-97.68,-10.52,58.59,2025-03-12T10:25:17.513184
364.75,-184.57,922.36,-0.73,0.0,-0.85,nan,nan,nan,2025-03-12T10:25:17.629170,970.21,-240.72,-98.63,-8.41,1.22,-0.37,-97.65,-10.55,58.74,2025-03-12T10:25:17.629170
357.18,-178.71,920.41,-0.49,0.37,-0.79,-22.0,-11.65,92.86,2025-03-12T10:25:17.630043,971.44,-250.24,-92.77,-8.78,1.89,-0.49,-97.62,-10.57,58.82,2025-03-12T10:25:17.630043
354.25,-171.39,920.41,0.12,0.37,-0.61,-21.99,-11.66,92.86,2025-03-12T10:25:17.630669,969.73,-244.14,-82.76,-1.1,-0.06,-1.34,-97.58,-10.59,58.84,2025-03-12T10:25:17.630669
354.25,-181.64,926.76,0.73,-0.3,-0.43,-21.98,-11.67,92.86,2025-03-12T10:25:17.644900,975.34,-227.54,-69.58,0.79,-1.1,-0.49,-97.55,-10.6,58.9,2025-03-12T10:25:17.644900
349.85,-180.66,919.43,1.22,-0.67,-0.18,-21.97,-11.7,92.87,2025-03-12T10:25:17.712674,974.12,-235.84,-70.07,4.51,-2.74,0.37,-97.5,-10.57,59.02,2025-03-12T10:25:17.712674
352.05,-186.04,920.9,2.07,-1.04,-0.3,-21.94,-11.72,92.88,2025-03-12T10:25:17.714664,978.03,-239.5,-82.03,4.82,-4.09,0.67,-97.44,-10.53,59.24,2025-03-12T10:25:17.714664
358.4,-177.73,924.32,1.95,-0.73,-0.3,-21.93,-11.73,92.89,2025-03-12T10:25:17.751553,964.11,-242.92,-87.89,4.15,-4.45,1.22,-97.39,-10.46,59.33,2025-03-12T10:25:17.751553
353.52,-178.47,927.49,1.77,-0.49,-0.37,-21.9,-11.75,92.89,2025-03-12T10:25:17.815675,978.27,-243.65,-94.97,3.23,-4.15,0.18,-97.3,-10.33,59.64,2025-03-12T10:25:17.815675
354.49,-180.91,925.78,1.89,-0.61,-0.61,-21.88,-11.75,92.92,2025-03-12T10:25:17.819761,968.02,-242.43,-98.39,4.45,-3.66,0.49,-97.22,-10.22,59.89,2025-03-12T10:25:17.819761
362.06,-172.12,921.63,0.91,-0.43,-0.24,-21.85,-11.75,92.91,2025-03-12T10:25:17.855116,970.95,-227.29,-119.63,4.82,-3.29,-0.43,-97.15,-10.13,59.82,2025-03-12T10:25:17.855116
357.18,-172.85,923.58,0.0,0.61,-0.98,-21.85,-11.73,92.89,2025-03-12T10:25:17.920357,969.97,-223.88,-117.92,-5.3,0.73,0.24,-97.1,-10.08,59.71,2025-03-12T10:25:17.920357
363.28,-168.21,929.2,-0.85,-0.06,-0.24,-21.84,-11.7,92.87,2025-03-12T10:25:17.925160,974.85,-239.99,-112.06,-7.32,2.2,0.37,-97.08,-10.07,59.6,2025-03-12T10:25:17.925160
351.56,-175.29,924.56,-1.65,-0.24,-0.06,-6.69,-23.76,-0.33,2025-03-12T10:25:17.960292,966.31,-229.49,-117.43,-6.16,3.11,0.24,-97.1,-10.16,59.32,2025-03-12T10:25:17.960292
356.93,-179.44,928.71,-2.32,-0.12,0.55,nan,nan,nan,2025-03-12T10:25:18.021263,974.37,-219.97,-96.19,-9.27,5.12,0.98,-97.18,-10.29,58.99,2025-03-12T10:25:18.021263
354.0,-184.08,919.68,-2.26,-0.37,0.3,-21.89,-11.55,92.8,2025-03-12T10:25:18.026848,973.63,-245.36,-86.43,-5.06,4.21,1.77,-97.29,-10.46,58.86,2025-03-12T10:25:18.026848
356.93,-183.35,926.03,-1.83,-0.55,0.49,-21.92,-11.52,92.79,2025-03-12T10:25:18.062548,975.1,-217.04,-98.14,-1.52,4.09,2.38,-97.38,-10.62,58.64,2025-03-12T10:25:18.062548
354.0,-175.78,922.36,-2.2,-1.4,0.67,-21.92,-11.5,92.79,2025-03-12T10:25:18.125852,977.05,-218.02,-88.38,-2.99,4.7,4.33,-97.43,-10.77,58.64,2025-03-12T10:25:18.125852
350.59,-191.16,924.32,-2.2,-1.83,1.34,-21.94,-11.5,92.79,2025-03-12T10:25:18.131516,974.12,-233.15,-76.66,2.56,3.29,5.61,-97.45,-10.89,58.49,2025-03-12T10:25:18.131516
361.33,-184.57,912.11,-1.71,-2.26,1.4,-21.94,-11.5,92.79,2025-03-12T10:25:18.167161,970.21,-242.43,-80.81,9.27,2.13,5.37,-97.41,-10.99,58.52,2025-03-12T10:25:18.167161
354.74,-184.33,913.09,-2.07,-1.52,1.04,-21.96,-11.53,92.78,2025-03-12T10:25:18.229786,970.46,-210.69,-52.0,2.38,3.35,7.32,-97.39,-11.1,58.33,2025-03-12T10:25:18.229786
350.59,-197.27,917.72,-0.79,-2.8,1.1,-21.98,-11.54,92.76,2025-03-12T10:25:18.237823,978.76,-273.19,-53.71,16.95,-1.1,8.48,-97.39,-11.24,58.16,2025-03-12T10:25:18.237823
358.4,-194.82,916.75,-0.73,-2.62,0.73,-22.0,-11.51,92.74,2025-03-12T10:25:18.272446,965.58,-261.72,-83.01,17.62,-0.98,7.87,-97.45,-11.38,57.98,2025-03-12T10:25:18.272446
359.86,-180.18,919.68,-1.16,-2.2,1.28,-22.01,-11.49,92.74,2025-03-12T10:25:18.326031,966.31,-280.52,-64.21,7.01,0.43,8.78,-97.53,-11.5,57.88,2025-03-12T10:25:18.326031
372.07,-192.87,915.77,-1.04,-2.26,1.04,-22.01,-11.47,92.74,2025-03-12T10:25:18.345890,955.08,-281.49,-65.19,7.38,0.67,7.8,-97.57,-11.55,58.04,2025-03-12T10:25:18.345890
365.97,-187.99,916.02,-2.01,-1.71,0.85,-22.0,-11.48,92.75,2025-03-12T10:25:18.377115,967.77,-286.13,-83.74,8.23,1.34,6.28,-97.58,-11.57,58.28,2025-03-12T10:25:18.377115
364.26,-193.36,919.19,-1.95,-1.46,0.61,-21.97,-11.5,92.77,2025-03-12T10:25:18.431250,960.21,-308.35,-71.04,-2.01,3.41,5.98,-97.53,-11.55,58.59,2025-03-12T10:25:18.431250
369.63,-191.16,912.84,-1.65,-1.1,0.85,nan,nan,nan,2025-03-12T10:25:18.447209,954.59,-293.21,-80.08,1.71,4.33,4.82,-97.43,-11.52,58.74,2025-03-12T10:25:18.447209
365.72,-192.63,916.99,-1.77,-0.98,1.28,-21.94,-11.6,92.78,2025-03-12T10:25:18.481022,966.55,-308.35,-74.95,7.5,3.72,2.87,-97.29,-11.46,58.92,2025-03-12T10:25:18.481022
370.12,-186.28,920.65,-2.32,-0.43,1.28,-21.93,-11.66,92.79,2025-03-12T10:25:18.541149,952.15,-295.65,-51.03,-4.45,7.13,2.13,-97.18,-11.43,58.92,2025-03-12T10:25:18.541149
363.53,-198.24,916.02,-2.68,-0.61,1.28,-21.92,-11.66,92.78,2025-03-12T10:25:18.550790,964.84,-298.34,-39.06,-3.54,6.46,2.2,-97.12,-11.47,58.8,2025-03-12T10:25:18.550790
360.11,-196.04,915.53,-2.74,-0.79,0.91,-21.92,-11.65,92.78,2025-03-12T10:25:18.586138,966.31,-301.03,-41.5,3.41,5.3,1.83,-97.14,-11.55,58.53,2025-03-12T10:25:18.586138
362.3,-187.5,917.24,-3.35,-0.49,0.61,-21.93,-11.64,92.78,2025-03-12T10:25:18.634892,958.74,-287.35,-31.01,-6.22,6.65,1.52,-97.17,-11.57,58.64,2025-03-12T10:25:18.634892
367.19,-208.25,912.84,-3.17,-0.06,-0.24,-21.92,-11.65,92.8,2025-03-12T10:25:18.655884,954.83,-315.19,-6.84,-8.29,6.1,1.65,-97.17,-11.54,58.97,2025-03-12T10:25:18.655884
365.23,-205.08,916.75,-1.89,0.06,-0.67,-21.9,-11.64,92.82,2025-03-12T10:25:18.690305,950.68,-294.43,-24.66,-4.21,4.39,1.77,-97.15,-11.5,59.21,2025-03-12T10:25:18.690305
364.5,-203.37,911.62,-1.89,-0.49,-0.61,-21.88,-11.63,92.82,2025-03-12T10:25:18.737322,958.98,-306.64,-46.63,-1.52,3.41,1.22,-97.14,-11.48,59.22,2025-03-12T10:25:18.737322
361.82,-199.46,916.26,-1.95,-0.12,-0.37,-21.88,-11.6,92.81,2025-03-12T10:25:18.759845,958.98,-281.49,-38.57,-5.06,5.61,2.26,-97.16,-11.49,59.15,2025-03-12T10:25:18.759845
363.77,-199.46,907.23,-1.16,-2.26,0.12,-21.88,-11.55,92.79,2025-03-12T10:25:18.836681,962.89,-309.81,-14.4,6.46,4.51,2.62,-97.21,-11.54,58.99,2025-03-12T10:25:18.836681
366.7,-215.09,914.31,-0.73,-2.56,0.49,-21.89,-11.49,92.76,2025-03-12T10:25:18.838059,964.84,-301.76,-29.05,5.98,3.96,2.87,-97.3,-11.6,58.82,2025-03-12T10:25:18.838059
361.82,-209.23,905.52,0.43,-4.76,0.67,-21.9,-11.4,92.74,2025-03-12T10:25:18.864839,962.4,-325.93,-18.31,13.48,2.8,3.23,-97.41,-11.67,58.66,2025-03-12T10:25:18.864839
363.28,-200.44,918.46,0.85,-6.83,1.4,8.23,-26.5,29.08,2025-03-12T10:25:18.941038,952.39,-306.4,7.08,14.76,1.59,2.56,-97.51,-11.71,58.54,2025-03-12T10:25:18.941038
358.64,-224.37,901.12,4.33,-8.11,1.59,-21.91,-11.27,92.68,2025-03-12T10:25:18.941191,953.61,-377.69,18.55,19.88,-2.13,1.95,0.0,0.0,0.0,2025-03-12T10:25:18.941191
377.44,-205.57,907.23,5.55,-7.32,1.77,-21.91,-11.2,92.66,2025-03-12T10:25:18.970235,957.03,-313.96,1.71,24.51,-3.96,-0.3,-74.68,-67.16,53.57,2025-03-12T10:25:18.970235
388.43,-203.37,909.67,5.73,-6.16,1.16,-21.88,-11.19,92.68,2025-03-12T10:25:19.045172,959.23,-292.24,-12.94,16.46,-3.29,-0.61,0.0,0.0,0.0,2025-03-12T10:25:19.045172
385.5,-201.9,904.05,5.73,-4.51,1.71,-21.87,-11.22,92.69,2025-03-12T10:25:19.045349,950.93,-331.54,5.13,16.65,-4.15,-0.79,-97.41,-11.77,59.3,2025-03-12T10:25:19.045349
388.92,-209.47,887.94,5.91,-4.33,1.46,-21.87,-11.28,92.7,2025-03-12T10:25:19.078251,925.29,-297.85,-26.37,18.96,-2.74,-2.62,-97.34,-11.8,59.39,2025-03-12T10:25:19.078251
397.95,-189.21,907.47,4.82,-4.21,2.68,-21.87,-11.35,92.71,2025-03-12T10:25:19.147336,967.77,-307.62,-10.01,14.02,-3.29,-1.65,-97.28,-11.83,59.41,2025-03-12T10:25:19.147336
385.25,-193.12,906.74,4.02,-3.6,3.29,-21.88,-11.41,92.7,2025-03-12T10:25:19.148055,951.9,-330.57,12.7,17.2,-4.94,-2.62,-97.21,-11.87,59.44,2025-03-12T10:25:19.148055
389.16,-195.07,913.33,4.94,-1.71,2.62,-21.88,-11.47,92.7,2025-03-12T10:25:19.184347,952.64,-332.28,0.73,19.27,-5.43,-3.23,-97.14,-11.93,59.49,2025-03-12T10:25:19.184347
393.31,-186.52,909.18,4.82,-1.46,2.01,-21.92,-11.55,92.69,2025-03-12T10:25:19.255124,960.45,-326.66,-11.47,15.67,-5.12,-4.27,-96.99,-12.09,59.59,2025-03-12T10:25:19.255124
395.02,-179.2,909.91,4.88,-0.91,1.77,-21.97,-11.63,92.66,2025-03-12T10:25:19.255996,960.45,-313.96,-21.73,14.94,-3.41,-6.28,-96.83,-12.33,59.45,2025-03-12T10:25:19.255996
390.14,-172.36,909.67,3.54,-0.43,1.28,-22.02,-11.71,92.63,2025-03-12T10:25:19.370059,959.96,-319.82,-27.83,7.87,-0.79,-7.01,-96.67,-12.57,59.18,2025-03-12T10:25:19.370059
393.31,-174.56,905.76,2.74,-0.73,1.28,-22.08,-11.77,92.61,2025-03-12T10:25:19.370943,968.75,-302.73,-29.79,10.55,0.3,-9.09,-96.53,-12.88,59.09,2025-03-12T10:25:19.370943
391.6,-187.74,913.09,1.46,0.06,1.71,-22.15,-11.81,92.57,2025-03-12T10:25:19.371574,971.68,-329.1,-20.02,6.89,2.26,-10.55,-96.41,-13.25,58.41,2025-03-12T10:25:19.371574
399.17,-188.72,906.01,1.52,0.43,1.65,-22.23,-11.84,92.53,2025-03-12T10:25:19.393471,961.67,-290.04,-33.2,8.78,4.7,-12.93,-96.3,-13.61,57.94,2025-03-12T10:25:19.393471
388.67,-176.03,904.79,1.59,1.28,1.52,-22.28,-11.89,92.5,2025-03-12T10:25:19.484140,964.84,-269.78,-18.8,-0.12,9.94,-13.72,-96.2,-13.94,57.71,2025-03-12T10:25:19.484140
390.87,-195.56,911.13,2.5,1.16,2.68,-22.34,-11.93,92.47,2025-03-12T10:25:19.485061,969.48,-312.99,0.24,5.73,9.21,-15.24,-96.1,-14.26,57.42,2025-03-12T10:25:19.485061
383.06,-180.18,903.56,3.17,1.59,3.41,-22.38,-12.0,92.46,2025-03-12T10:25:19.503898,967.77,-254.88,-1.95,15.06,9.21,-17.5,-95.98,-14.51,57.27,2025-03-12T10:25:19.503898
385.99,-173.1,910.89,4.33,1.4,3.48,-22.41,-12.07,92.45,2025-03-12T10:25:19.555910,978.52,-241.94,38.82,0.43,13.29,-17.2,-95.85,-14.72,57.3,2025-03-12T10:25:19.555910
398.68,-191.41,919.68,5.43,2.13,3.11,-22.43,-12.13,92.43,2025-03-12T10:25:19.569554,989.01,-165.77,90.09,-2.87,12.68,-16.83,-95.68,-14.91,57.2,2025-03-12T10:25:19.569554
386.47,-148.68,928.71,8.78,1.04,2.68,-22.45,-12.22,92.4,2025-03-12T10:25:19.603829,985.6,-145.26,84.96,-15.24,11.77,-11.16,-95.46,-15.03,57.0,2025-03-12T10:25:19.603829
406.74,-176.51,966.55,23.17,0.73,4.57,-22.44,-12.31,92.39,2025-03-12T10:25:19.663256,1044.43,-194.09,56.15,-4.76,5.49,-6.71,-95.24,-15.1,57.17,2025-03-12T10:25:19.663256
436.28,-92.77,945.56,63.17,9.94,12.26,-22.46,-12.4,92.38,2025-03-12T10:25:19.676059,1087.89,-151.86,-69.82,19.09,5.79,-5.3,-95.03,-15.19,57.2,2025-03-12T10:25:19.676059
517.09,-28.81,953.12,55.18,-24.39,23.17,-22.48,-12.5,92.38,2025-03-12T10:25:19.708482,1052.0,-217.29,-135.74,21.1,8.9,-6.83,-94.8,-15.26,57.08,2025-03-12T10:25:19.708482
570.56,-159.18,1021.0,5.24,-19.63,52.56,-22.48,-12.61,92.4,2025-03-12T10:25:19.762059,1034.18,-153.81,-141.85,42.68,0.43,-10.12,-94.62,-15.31,57.34,2025-03-12T10:25:19.762059
603.76,240.72,837.4,-6.71,-3.17,112.74,-22.46,-12.69,92.44,2025-03-12T10:25:19.778936,894.04,-182.62,-148.19,67.07,-15.18,-10.18,-94.47,-15.36,57.58,2025-03-12T10:25:19.778936
566.89,637.7,880.37,-4.94,-8.05,87.5,-22.46,-12.75,92.47,2025-03-12T10:25:19.813818,926.03,-190.43,-127.93,77.26,-32.68,-13.17,-94.34,-15.43,57.71,2025-03-12T10:25:19.813818
569.34,577.88,896.0,32.07,1.71,-0.24,-22.47,-12.8,92.5,2025-03-12T10:25:19.863391,984.38,33.45,-246.83,49.88,-47.2,-16.83,-94.21,-15.48,57.78,2025-03-12T10:25:19.863391
549.32,199.71,836.43,32.62,5.85,-53.29,-22.49,-12.84,92.51,2025-03-12T10:25:19.883256,937.99,-1.71,-215.09,-59.21,-31.71,-3.23,-94.03,-15.57,57.9,2025-03-12T10:25:19.883256
546.88,-46.88,813.72,23.35,-0.12,-62.99,-22.56,-12.88,92.51,2025-03-12T10:25:19.919435,969.73,-272.95,-96.92,-81.1,-35.18,1.95,-93.8,-15.69,57.67,2025-03-12T10:25:19.919435
486.33,-218.26,819.82,35.79,-3.29,-43.35,-22.65,-12.89,92.48,2025-03-12T10:25:19.965830,954.35,-246.83,-101.07,-21.34,-55.12,-0.61,-93.6,-15.82,57.44,2025-03-12T10:25:19.965830
434.33,-142.58,968.26,53.9,-26.89,-11.22,-22.82,-12.88,92.44,2025-03-12T10:25:19.987674,949.22,-182.86,-157.47,-5.49,-54.09,-0.43,-93.34,-15.95,56.86,2025-03-12T10:25:19.987674
412.6,80.81,911.13,30.67,-10.91,-0.85,-23.04,-12.84,92.35,2025-03-12T10:25:20.022749,1007.32,-197.27,-147.71,-9.02,-49.27,1.04,-93.15,-16.09,56.36,2025-03-12T10:25:20.022749
407.71,32.96,948.24,23.6,-13.96,-19.33,-23.28,-12.71,92.23,2025-03-12T10:25:20.070703,994.63,-181.15,-132.08,-23.72,-44.88,1.04,-93.01,-16.22,55.47,2025-03-12T10:25:20.070703
399.41,-132.08,977.05,21.1,-11.77,-27.93,-23.48,-12.54,92.08,2025-03-12T10:25:20.093623,987.55,-190.19,-131.84,-35.79,-33.78,-0.67,-92.91,-16.26,54.65,2025-03-12T10:25:20.093623
395.26,-232.67,916.99,16.16,-3.05,-11.95,-23.64,-12.37,91.95,2025-03-12T10:25:20.167650,987.3,-236.08,-67.87,-33.41,-31.34,0.91,-92.84,-16.28,54.09,2025-03-12T10:25:20.167650
374.76,-259.52,849.12,21.28,-11.16,13.54,-23.76,-12.19,91.8,2025-03-12T10:25:20.173742,968.26,-239.01,-23.93,8.23,-40.18,0.3,-92.79,-16.28,53.4,2025-03-12T10:25:20.173742
322.51,-272.22,979.0,36.04,-14.51,41.1,-23.86,-12.04,91.65,2025-03-12T10:25:20.200906,974.37,-241.94,-93.99,50.0,-45.61,-0.61,-92.7,-16.25,52.8,2025-03-12T10:25:20.200906
232.42,-258.79,933.11,35.49,-6.59,72.68,-23.96,-11.92,91.48,2025-03-12T10:25:20.272714,950.44,-160.64,-83.98,63.11,-39.7,-4.27,-92.65,-16.22,52.23,2025-03-12T10:25:20.272714
218.26,-204.35,948.49,40.98,-2.93,95.55,-24.02,-11.83,91.31,2025-03-12T10:25:20.273549,950.2,-167.97,-108.15,84.63,-33.78,-7.38,-92.63,-16.16,51.57,2025-03-12T10:25:20.273549
151.37,-46.63,894.53,31.59,26.4,107.68,-24.04,-11.71,91.15,2025-03-12T10:25:20.304713,970.46,-72.51,-129.15,96.46,-23.96,-11.65,-92.6,-16.08,50.87,2025-03-12T10:25:20.304713
100.59,124.76,952.15,5.18,11.65,92.26,-24.05,-11.58,91.01,2025-03-12T10:25:20.379924,974.37,35.89,-174.56,79.82,-1.71,-13.9,-92.6,-15.96,50.29,2025-03-12T10:25:20.379924
222.41,9.52,1254.64,-17.74,17.8,56.77,-24.04,-11.45,90.88,2025-03-12T10:25:20.380617,965.58,31.25,-127.69,9.63,21.34,-9.57,-92.55,-15.76,49.81,2025-03-12T10:25:20.380617
470.46,-202.15,1094.73,-154.88,30.06,73.29,-24.02,-11.36,90.78,2025-03-12T10:25:20.411216,970.21,-260.25,-68.12,-24.76,26.4,-0.85,-92.48,-15.53,49.49,2025-03-12T10:25:20.411216
725.59,-204.35,1148.19,-172.62,-30.73,26.04,-24.02,-11.3,90.7,2025-03-12T10:25:20.477733,968.02,-602.78,-100.34,43.54,11.04,6.04,-92.34,-15.23,49.14,2025-03-12T10:25:20.477733
298.83,-256.84,1020.02,18.9,48.35,-12.38,-23.99,-11.27,90.61,2025-03-12T10:25:20.479667,1380.37,178.96,-283.2,18.72,38.17,21.77,-92.16,-14.88,48.81,2025-03-12T10:25:20.479667
341.06,45.65,958.74,-0.91,13.17,-5.91,-23.94,-11.24,90.52,2025-03-12T10:25:20.516412,532.23,-115.23,-235.6,-140.67,37.8,9.27,-91.89,-14.44,48.57,2025-03-12T10:25:20.516412
394.53,-308.59,866.7,-25.24,-1.71,18.78,-23.88,-11.21,90.43,2025-03-12T10:25:20.580565,978.27,-591.8,-57.62,59.82,3.84,15.0,-91.53,-13.98,48.57,2025-03-12T10:25:20.580565
361.57,-244.14,910.16,-9.94,7.13,5.06,-23.8,-11.16,90.27,2025-03-12T10:25:20.583451,1005.37,-87.89,-167.48,77.2,25.91,11.22,-91.13,-13.46,48.12,2025-03-12T10:25:20.583451
355.47,-177.73,936.28,-3.23,-1.83,3.35,-23.71,-11.09,90.1,2025-03-12T10:25:20.619560,959.23,-430.91,-98.88,-11.04,31.46,17.26,-90.68,-12.85,47.69,2025-03-12T10:25:20.619560
372.8,-213.38,924.56,-5.49,-4.82,4.21,-23.61,-10.98,89.9,2025-03-12T10:25:20.682091,957.03,-380.62,-62.26,42.74,20.3,0.91,-90.19,-12.26,47.7,2025-03-12T10:25:20.682091
375.49,-195.56,923.58,-6.28,-0.18,1.83,-23.5,-10.77,89.69,2025-03-12T10:25:20.689234,957.03,-210.21,-40.77,16.4,23.72,2.68,-89.75,-11.68,47.85,2025-03-12T10:25:20.689234
380.86,-220.7,910.16,-2.99,-3.35,2.93,-23.4,-10.39,89.4,2025-03-12T10:25:20.724542,986.57,-252.93,57.62,2.2,18.29,4.27,-89.45,-11.33,48.4,2025-03-12T10:25:20.724542
351.56,-217.77,914.55,-0.06,-2.62,2.01,-23.24,-9.45,88.77,2025-03-12T10:25:20.786647,956.3,-204.35,72.02,11.89,6.28,6.83,-89.25,-11.12,48.26,2025-03-12T10:25:20.786647
374.76,-191.89,914.31,2.26,-4.63,0.37,-22.97,-7.39,87.36,2025-03-12T10:25:20.796008,961.18,-289.06,-47.36,31.65,-2.68,9.76,-88.87,-10.92,47.49,2025-03-12T10:25:20.796008
383.3,-203.12,908.94,3.05,-4.76,1.16,-23.64,-6.53,85.87,2025-03-12T10:25:20.829584,948.0,-286.62,-57.37,23.66,-1.95,8.48,-88.49,-10.64,46.61,2025-03-12T10:25:20.829584
377.2,-206.54,914.55,3.11,-3.41,1.16,-23.71,-7.3,83.51,2025-03-12T10:25:20.886995,974.12,-342.53,-70.31,20.67,-1.59,6.22,-88.12,-10.22,44.85,2025-03-12T10:25:20.886995
381.1,-199.95,905.27,2.93,-2.5,1.52,-23.02,-8.95,79.98,2025-03-12T10:25:20.900468,951.66,-298.58,-84.47,17.5,0.3,3.6,-88.47,-9.76,42.34,2025-03-12T10:25:20.900468
375.24,-184.08,910.64,2.07,-2.2,1.77,-22.95,-9.68,77.77,2025-03-12T10:25:20.935884,981.2,-301.27,-58.84,13.23,2.26,2.8,-89.39,-9.22,39.68,2025-03-12T10:25:20.935884
381.1,-187.99,908.2,1.16,-1.65,1.77,-22.76,-8.37,77.81,2025-03-12T10:25:20.993912,941.89,-311.52,-45.9,6.83,2.87,2.38,-90.9,-8.63,38.78,2025-03-12T10:25:20.993912
386.96,-203.86,905.27,1.22,-2.13,1.89,-22.87,-6.52,79.3,2025-03-12T10:25:21.025712,953.37,-305.18,-33.94,10.55,2.01,0.3,-92.43,-8.5,41.42,2025-03-12T10:25:21.025712
380.62,-179.44,904.54,1.46,-1.16,1.28,-23.18,-4.94,80.87,2025-03-12T10:25:21.037365,964.11,-283.2,-56.15,6.34,3.66,0.67,-94.2,-8.45,43.79,2025-03-12T10:25:21.037365
387.21,-194.82,911.38,-0.18,-1.4,1.22,-23.54,-3.2,81.41,2025-03-12T10:25:21.099572,955.81,-336.91,-33.94,3.78,3.17,-0.24,-96.25,-8.39,44.26,2025-03-12T10:25:21.099572
374.51,-183.59,911.38,-0.98,-0.73,0.79,-24.47,-1.69,80.94,2025-03-12T10:25:21.110707,961.18,-279.3,-31.25,-0.73,5.12,-0.73,-98.15,-8.39,44.52,2025-03-12T10:25:21.110707
377.69,-210.21,903.32,-1.04,-0.85,0.12,-24.89,-0.65,80.67,2025-03-12T10:25:21.141935,959.23,-313.96,-28.56,-3.29,4.88,-1.4,-99.89,-8.38,44.94,2025-03-12T10:25:21.141935
382.57,-208.01,910.64,-0.91,-0.85,0.24,-25.41,0.45,81.03,2025-03-12T10:25:21.214528,968.26,-305.66,-39.31,6.16,3.23,-2.74,-101.5,-8.24,45.88,2025-03-12T10:25:21.214528
375.73,-195.31,906.25,-0.73,-0.98,0.3,-25.7,1.3,81.52,2025-03-12T10:25:21.214679,959.72,-315.43,-15.62,-0.61,4.21,-3.48,-102.77,-7.99,47.16,2025-03-12T10:25:21.214679
380.13,-210.21,901.61,-0.67,-0.49,0.18,-25.88,1.86,81.43,2025-03-12T10:25:21.420034,959.47,-295.41,-1.95,-0.98,3.41,-2.99,-103.99,-7.86,47.99,2025-03-12T10:25:21.420034
389.16,-207.76,910.16,0.67,-1.1,0.43,-26.4,2.17,80.41,2025-03-12T10:25:21.420273,971.92,-333.74,-13.18,13.48,-0.85,-4.39,-105.29,-8.1,47.32,2025-03-12T10:25:21.420273
397.95,-186.28,916.99,3.48,-0.37,0.18,-26.86,2.43,78.3,2025-03-12T10:25:21.420708,947.75,-302.98,-10.01,10.73,-0.67,-6.52,-106.49,-8.61,45.38,2025-03-12T10:25:21.420708
392.33,-219.48,907.47,6.52,1.04,-0.98,-27.17,2.25,75.26,2025-03-12T10:25:21.420824,963.13,-304.2,11.72,8.72,-2.8,-7.68,-107.39,-9.13,43.05,2025-03-12T10:25:21.420824
370.36,-183.11,905.52,17.93,6.22,-3.9,-27.31,1.68,71.53,2025-03-12T10:25:21.420928,950.2,-250.24,24.41,15.61,-4.57,-8.78,-107.92,-9.8,39.85,2025-03-12T10:25:21.420928
365.23,-188.48,913.09,18.54,5.37,-3.78,-26.75,0.62,67.87,2025-03-12T10:25:21.421096,969.24,-253.66,-7.57,12.56,-6.65,-7.99,-107.92,-10.37,36.47,2025-03-12T10:25:21.421096
363.77,-156.98,919.68,19.09,5.18,-3.72,-26.19,-0.59,65.26,2025-03-12T10:25:21.456551,966.06,-265.87,-47.85,14.82,-5.06,-6.95,-107.26,-10.52,34.11,2025-03-12T10:25:21.456551
385.25,-148.19,923.83,13.84,2.87,-1.46,-24.95,-2.11,63.81,2025-03-12T10:25:21.523910,964.36,-272.46,-61.28,13.96,-4.76,-7.13,-106.34,-10.17,34.19,2025-03-12T10:25:21.523910
353.52,-104.25,925.54,10.06,2.01,-0.24,-23.88,-8.27,64.08,2025-03-12T10:25:21.526097,968.51,-250.73,-43.21,11.46,-1.4,-6.83,-105.55,-10.1,34.73,2025-03-12T10:25:21.526097
369.87,-131.35,915.77,8.23,1.16,-0.12,-23.77,-11.46,64.9,2025-03-12T10:25:21.561390,969.73,-282.96,-43.46,7.01,0.55,-6.89,-104.74,-10.97,32.75,2025-03-12T10:25:21.561390
367.68,-128.66,925.54,4.63,-1.59,1.16,-22.26,-10.6,65.13,2025-03-12T10:25:21.719638,971.68,-236.57,-34.67,1.52,1.52,-7.01,-103.32,-11.54,33.89,2025-03-12T10:25:21.719638
366.21,-126.71,917.48,1.4,-2.56,2.32,-22.05,-10.92,65.16,2025-03-12T10:25:21.720231,973.88,-288.57,-27.1,7.26,2.38,-6.1,-102.96,-11.32,37.37,2025-03-12T10:25:21.720231
379.88,-141.36,920.65,-0.79,-2.68,2.56,-22.0,-11.86,64.89,2025-03-12T10:25:21.720649,977.54,-246.09,-33.69,8.9,2.99,-7.8,-102.0,-12.47,34.28,2025-03-12T10:25:21.720649
363.04,-134.77,927.49,-0.49,-2.38,2.56,-21.75,-12.15,64.87,2025-03-12T10:25:21.725526,971.92,-260.99,-21.0,1.71,4.7,-6.28,-100.62,-13.2,33.0,2025-03-12T10:25:21.725526
368.41,-146.97,924.8,-2.13,-2.74,2.99,-21.84,-12.32,64.77,2025-03-12T10:25:21.840270,982.67,-225.34,-8.3,9.94,2.38,-7.56,-99.67,-13.75,32.9,2025-03-12T10:25:21.840270
365.97,-144.78,927.0,-1.34,-1.52,3.17,-21.94,-12.57,64.72,2025-03-12T10:25:21.841149,970.95,-268.31,-13.92,7.56,5.12,-6.46,-98.55,-14.01,31.52,2025-03-12T10:25:21.841149
374.02,-141.6,921.14,-1.4,-0.91,2.56,-21.94,-12.76,64.72,2025-03-12T10:25:21.844618,982.42,-235.35,-26.61,8.05,5.67,-8.66,-97.61,-14.15,31.25,2025-03-12T10:25:21.844618
370.36,-148.44,917.48,-1.59,-0.18,1.89,-22.04,-12.86,64.64,2025-03-12T10:25:21.845475,979.49,-235.11,-18.55,-1.28,10.12,-8.72,-96.98,-14.32,31.08,2025-03-12T10:25:21.845475
368.16,-153.81,914.55,-2.32,-0.43,2.26,-22.11,-12.86,64.57,2025-03-12T10:25:21.878149,980.96,-219.97,-19.29,2.01,11.59,-10.3,-96.63,-14.67,30.53,2025-03-12T10:25:21.878149
381.35,-148.44,925.54,-4.45,-0.3,2.62,-22.24,-12.8,64.51,2025-03-12T10:25:21.973564,990.97,-254.15,-5.62,2.32,12.62,-12.56,-96.43,-15.13,29.4,2025-03-12T10:25:21.973564
374.76,-150.39,917.72,-5.85,-0.43,2.74,-22.37,-12.7,64.41,2025-03-12T10:25:21.974337,987.79,-200.44,2.2,-6.71,17.74,-13.72,-96.27,-15.54,28.65,2025-03-12T10:25:21.974337
382.57,-159.91,913.33,-7.56,-0.37,3.6,-22.46,-12.61,64.32,2025-03-12T10:25:21.981571,989.01,-223.88,39.79,-8.23,18.29,-14.33,-96.11,-15.83,27.91,2025-03-12T10:25:21.981571
364.01,-157.71,919.19,-7.07,0.91,4.21,-22.52,-12.53,64.22,2025-03-12T10:25:22.133577,979.74,-198.24,49.07,0.12,16.22,-16.34,-95.91,-16.01,27.35,2025-03-12T10:25:22.133577
391.6,-154.3,946.53,-3.29,2.32,4.27,-22.56,-12.47,64.12,2025-03-12T10:25:22.134284,1025.88,-152.34,58.59,-9.51,17.93,-15.43,-95.69,-16.14,26.93,2025-03-12T10:25:22.134284
404.3,-182.37,957.52,9.76,4.7,7.01,-22.6,-12.46,64.04,2025-03-12T10:25:22.134976,1027.1,-141.85,58.59,-18.84,17.62,-11.65,-95.49,-16.25,26.64,2025-03-12T10:25:22.134976
442.63,-411.13,1002.44,53.6,11.77,12.01,-22.63,-12.44,63.96,2025-03-12T10:25:22.139733,1071.53,-184.81,-8.3,-4.02,14.27,-9.09,-95.29,-16.3,26.28,2025-03-12T10:25:22.139733
448.97,-9.03,927.25,62.13,-13.72,27.13,-22.65,-12.42,63.9,2025-03-12T10:25:22.182355,1069.34,-160.89,-69.34,26.59,13.05,-11.77,-95.1,-16.35,26.11,2025-03-12T10:25:22.182355
545.65,-106.69,972.66,-16.59,-2.68,43.23,-22.68,-12.45,63.85,2025-03-12T10:25:22.238498,1034.42,-164.06,-34.67,15.06,15.85,-12.01,-94.91,-16.35,25.91,2025-03-12T10:25:22.238498
611.57,-166.02,930.42,-25.37,30.37,78.66,-22.7,-12.48,63.84,2025-03-12T10:25:22.239191,925.78,-150.39,-43.95,20.0,6.4,-7.93,-94.73,-16.31,26.0,2025-03-12T10:25:22.239191
640.62,261.96,656.25,-35.43,-8.48,47.26,-22.71,-12.51,63.83,2025-03-12T10:25:22.261857,852.05,-141.11,-7.81,40.91,-22.99,-0.61,-94.55,-16.27,26.04,2025-03-12T10:25:22.261857
708.25,422.85,787.35,33.9,-8.54,-4.51,-22.73,-12.53,63.82,2025-03-12T10:25:22.341981,924.07,-39.06,-82.76,52.68,-53.29,11.16,-94.36,-16.19,25.86,2025-03-12T10:25:22.341981
574.46,121.34,793.46,57.44,-18.6,-12.87,-22.75,-12.55,63.81,2025-03-12T10:25:22.342745,921.14,-28.32,-128.17,0.85,-61.52,23.6,-94.19,-16.07,25.87,2025-03-12T10:25:22.342745
607.91,39.06,945.56,51.83,-25.18,-11.46,-22.76,-12.55,63.8,2025-03-12T10:25:22.366571,965.33,-231.93,-93.26,-19.45,-76.71,30.55,-94.06,-15.98,25.83,2025-03-12T10:25:22.366571
517.82,44.19,933.11,56.16,-25.73,-7.26,-22.77,-12.51,63.76,2025-03-12T10:25:22.458086,994.38,-216.55,-122.8,17.44,-93.17,30.18,-93.92,-15.86,25.24,2025-03-12T10:25:22.458086
410.89,-11.96,964.11,69.02,-40.3,-1.83,-22.75,-12.37,63.7,2025-03-12T10:25:22.458825,983.64,-278.32,-186.52,21.59,-100.73,25.49,-93.83,-15.68,24.92,2025-03-12T10:25:22.458825
324.71,1.95,955.08,50.79,-29.15,-6.22,nan,nan,nan,2025-03-12T10:25:22.544370,993.16,-210.94,-298.34,10.3,-95.24,20.24,-93.8,-15.46,24.44,2025-03-12T10:25:22.544370
235.6,-129.39,1017.82,39.02,-26.46,-7.62,-22.41,-11.37,63.48,2025-03-12T10:25:22.545275,943.12,-217.29,-205.32,-15.3,-62.32,19.15,-93.79,-15.21,23.88,2025-03-12T10:25:22.545275
180.66,-140.14,1054.2,17.87,-7.74,-9.33,-22.19,-10.71,63.34,2025-03-12T10:25:22.545940,971.44,-280.76,-140.62,-8.29,-39.09,10.67,-93.87,-14.99,23.43,2025-03-12T10:25:22.545940
167.48,-163.09,1070.31,10.85,4.21,-7.01,-21.98,-10.09,63.21,2025-03-12T10:25:22.576953,978.03,-240.23,-116.7,-10.79,-20.79,-1.59,-93.9,-14.8,22.85,2025-03-12T10:25:22.576953
137.21,-260.74,1002.44,3.9,13.35,3.72,-21.85,-9.63,63.06,2025-03-12T10:25:22.646347,995.36,-237.55,-95.7,-17.68,1.59,-12.56,-93.92,-14.58,22.32,2025-03-12T10:25:22.646347
183.84,-187.01,989.99,-10.12,17.2,7.62,-21.77,-9.31,62.93,2025-03-12T10:25:22.647287,970.7,-245.85,-76.66,-7.74,17.44,-18.11,-93.84,-14.38,21.92,2025-03-12T10:25:22.647287
263.18,-155.52,981.93,-15.06,22.74,6.4,nan,nan,nan,2025-03-12T10:25:22.679872,1006.84,-200.93,-51.27,-3.84,25.06,-19.88,-93.75,-14.14,21.65,2025-03-12T10:25:22.679872
363.53,-207.52,980.47,-22.99,21.89,16.04,-21.78,-8.97,62.72,2025-03-12T10:25:22.751976,997.07,-192.14,-65.19,-11.46,27.38,-17.74,-93.65,-13.92,21.55,2025-03-12T10:25:22.751976
300.54,-238.04,731.93,-35.18,-6.89,32.62,-21.85,-8.96,62.62,2025-03-12T10:25:22.752190,989.01,-191.65,-10.74,-15.49,23.96,-9.21,-93.47,-13.72,21.21,2025-03-12T10:25:22.752190
352.78,297.85,1394.53,6.28,27.32,8.9,-21.92,-9.01,62.54,2025-03-12T10:25:22.786699,1044.43,-88.62,-45.9,-22.87,13.78,-6.95,-93.28,-13.47,20.99,2025-03-12T10:25:22.786699
274.41,-155.52,928.71,-75.85,19.82,3.48,-22.0,-9.08,62.46,2025-03-12T10:25:22.855523,989.75,-102.05,-51.76,-31.4,22.74,-4.51,-93.08,-13.26,20.81,2025-03-12T10:25:22.855523
484.86,-109.62,846.19,-66.83,13.17,-3.23,-22.07,-9.19,62.38,2025-03-12T10:25:22.856638,947.51,-192.87,-99.85,-11.65,12.99,5.0,-92.87,-13.02,20.47,2025-03-12T10:25:22.856638
379.64,-139.65,995.12,-41.59,7.68,-3.41,nan,nan,nan,2025-03-12T10:25:22.888687,1028.08,-100.83,-170.9,-8.84,6.04,11.1,-92.61,-12.8,20.11,2025-03-12T10:25:22.888687
407.47,-159.91,967.53,-41.71,-2.32,0.55,-22.1,-9.33,62.22,2025-03-12T10:25:22.953817,1009.28,-220.21,-197.02,9.51,2.87,8.48,-92.31,-12.51,19.89,2025-03-12T10:25:22.953817
391.6,-154.3,924.07,-15.37,1.22,3.66,-22.09,-9.4,62.16,2025-03-12T10:25:22.958743,983.4,-159.91,-230.47,6.83,2.68,8.23,-91.94,-12.2,19.89,2025-03-12T10:25:22.958743
384.03,-172.12,906.98,-8.9,2.38,2.44,-22.09,-9.52,62.12,2025-03-12T10:25:22.994265,971.44,-232.18,-188.48,6.34,7.74,9.15,-91.53,-11.84,19.81,2025-03-12T10:25:22.994265
380.86,-168.21,919.19,-4.7,2.07,2.74,-22.09,-9.7,62.08,2025-03-12T10:25:23.056358,967.04,-202.39,-195.56,17.2,9.88,8.48,-91.02,-11.39,19.72,2025-03-12T10:25:23.056358
388.67,-144.29,922.12,-5.0,1.46,4.57,-22.08,-9.93,62.05,2025-03-12T10:25:23.063211,971.68,-206.3,-166.99,11.34,11.71,6.59,-90.44,-10.93,20.07,2025-03-12T10:25:23.063211
366.7,-184.08,922.36,-5.37,1.16,3.48,-22.12,-10.2,62.0,2025-03-12T10:25:23.098451,1005.62,-230.96,-139.65,15.06,13.54,8.29,-89.83,-10.43,20.24,2025-03-12T10:25:23.098451
381.59,-160.89,927.49,-7.26,1.34,3.11,18.08,-10.64,-109.86,2025-03-12T10:25:23.158740,975.1,-170.17,-118.41,2.07,15.06,8.48,-89.23,-9.87,20.33,2025-03-12T10:25:23.158740
361.33,-191.65,913.57,-5.43,-0.73,3.72,20.08,-31.93,49.81,2025-03-12T10:25:23.168219,969.24,-282.96,-79.59,0.85,12.56,8.96,-88.65,-9.36,20.79,2025-03-12T10:25:23.168219
374.27,-195.56,919.43,0.79,-1.95,2.44,0.0,0.0,0.0,2025-03-12T10:25:23.204432,950.44,-196.53,-74.95,11.46,9.33,7.62,-88.16,-8.98,21.42,2025-03-12T10:25:23.204432
350.34,-193.6,903.81,-2.93,-0.91,2.74,nan,nan,nan,2025-03-12T10:25:23.259152,976.56,-259.77,-52.25,4.76,6.71,10.61,-87.65,-8.65,21.27,2025-03-12T10:25:23.259152
368.16,-191.41,916.75,-1.65,-0.73,1.89,nan,nan,nan,2025-03-12T10:25:23.274023,958.25,-256.1,-75.68,20.18,2.5,8.96,-87.1,-8.2,20.36,2025-03-12T10:25:23.274023
372.31,-192.87,911.62,-0.37,-0.61,1.71,0.0,0.0,0.0,2025-03-12T10:25:23.309924,979.74,-257.32,-98.88,12.8,3.05,8.96,-86.57,-7.79,19.95,2025-03-12T10:25:23.309924
378.42,-177.73,918.95,-0.98,0.37,1.65,0.0,0.0,0.0,2025-03-12T10:25:23.367063,965.58,-276.37,-103.76,10.61,3.41,7.68,-86.48,-7.49,19.04,2025-03-12T10:25:23.367063
368.16,-188.48,915.77,-1.89,0.49,1.89,nan,nan,nan,2025-03-12T10:25:23.380769,969.48,-266.6,-78.61,7.07,4.02,6.22,-87.36,-7.5,17.4,2025-03-12T10:25:23.380769
371.83,-188.48,914.55,-1.83,0.73,1.16,117.84,-23.01,59.54,2025-03-12T10:25:23.416918,966.8,-275.15,-57.62,3.48,3.78,6.16,-89.18,-7.83,15.96,2025-03-12T10:25:23.416918
369.63,-191.65,911.87,-1.22,0.55,0.61,0.0,0.0,0.0,2025-03-12T10:25:23.481928,969.48,-276.37,-54.44,5.12,1.52,5.37,-91.58,-8.71,16.26,2025-03-12T10:25:23.481928
367.43,-189.94,915.04,-0.67,1.16,-0.12,nan,nan,nan,2025-03-12T10:25:23.488755,968.26,-274.41,-68.6,1.83,1.04,5.55,-94.49,-9.83,16.58,2025-03-12T10:25:23.488755
362.55,-198.24,909.42,0.3,0.98,-0.06,0.0,0.0,0.0,2025-03-12T10:25:23.567039,961.91,-288.33,-76.17,1.1,0.37,4.82,-97.8,-10.95,16.01,2025-03-12T10:25:23.567039
367.92,-190.43,918.46,-0.12,0.98,-0.18,nan,nan,nan,2025-03-12T10:25:23.577113,964.36,-283.2,-83.25,1.1,0.79,4.02,-101.18,-11.89,15.45,2025-03-12T10:25:23.577113
369.87,-196.04,916.02,-0.24,-0.12,0.18,0.0,0.0,0.0,2025-03-12T10:25:23.596272,966.8,-292.48,-82.03,1.89,0.18,3.23,-104.19,-12.57,15.52,2025-03-12T10:25:23.596272
361.08,-193.12,919.43,-0.3,0.3,0.18,nan,nan,nan,2025-03-12T10:25:23.673518,954.1,-282.47,-71.53,0.0,0.98,2.56,-106.24,-13.04,16.19,2025-03-12T10:25:23.673518
368.41,-193.36,917.48,-0.49,0.18,0.18,nan,nan,nan,2025-03-12T10:25:23.673791,962.4,-295.17,-71.29,1.16,0.18,1.4,-107.46,-13.24,16.53,2025-03-12T10:25:23.673791
358.15,-198.0,913.82,0.06,0.73,0.12,nan,nan,nan,2025-03-12T10:25:23.698448,967.29,-287.35,-58.59,0.0,-0.55,1.04,-107.98,-12.96,16.88,2025-03-12T10:25:23.698448
363.28,-195.56,909.18,0.67,0.85,-0.43,0.0,0.0,0.0,2025-03-12T10:25:23.776896,963.13,-298.83,-64.94,-0.67,-1.22,0.91,-107.76,-12.34,17.26,2025-03-12T10:25:23.776896
359.62,-192.87,919.43,0.61,0.49,-0.73,0.0,0.0,0.0,2025-03-12T10:25:23.777638,963.38,-292.48,-80.08,-0.67,-1.65,0.06,-106.96,-11.68,17.21,2025-03-12T10:25:23.777638
364.5,-193.36,916.5,0.12,0.24,-0.67,nan,nan,nan,2025-03-12T10:25:23.960904,962.4,-296.14,-78.37,-3.6,-1.28,-0.79,-105.94,-10.96,17.16,2025-03-12T10:25:23.960904
361.82,-196.53,921.14,0.06,0.43,-0.43,0.0,0.0,0.0,2025-03-12T10:25:23.961061,953.86,-301.03,-72.27,-3.05,-1.16,-1.16,-104.95,-10.31,17.43,2025-03-12T10:25:23.961061
362.06,-187.5,916.99,0.61,0.67,-0.67,nan,nan,nan,2025-03-12T10:25:23.961511,963.62,-285.64,-68.6,-0.98,-1.95,-2.07,-104.19,-9.87,18.09,2025-03-12T10:25:23.961511
362.55,-191.89,918.46,0.73,0.61,-0.79,0.0,0.0,0.0,2025-03-12T10:25:23.961567,960.94,-287.84,-73.0,-1.4,-2.38,-2.44,-103.6,-9.39,18.74,2025-03-12T10:25:23.961567
359.62,-190.67,912.11,1.65,0.73,-0.91,nan,nan,nan,2025-03-12T10:25:23.961622,962.4,-288.33,-77.64,-1.04,-2.93,-2.74,-102.95,-9.07,19.75,2025-03-12T10:25:23.961622
364.01,-185.06,923.1,1.83,0.79,-0.85,nan,nan,nan,2025-03-12T10:25:23.981183,958.98,-283.2,-75.93,-3.9,-2.93,-2.8,-102.61,-9.24,20.11,2025-03-12T10:25:23.981183
364.75,-184.08,919.19,1.83,0.85,-1.22,0.0,0.0,0.0,2025-03-12T10:25:24.018395,958.25,-283.45,-80.57,-3.05,-3.11,-3.17,-102.42,-9.53,20.45,2025-03-12T10:25:24.018395
359.86,-186.04,919.68,1.52,0.85,-1.28,nan,nan,nan,2025-03-12T10:25:24.060743,963.62,-283.45,-87.65,-4.27,-2.87,-3.11,-102.31,-9.91,20.08,2025-03-12T10:25:24.060743
362.79,-186.28,917.97,2.2,0.79,-1.04,nan,nan,nan,2025-03-12T10:25:24.086362,964.36,-278.56,-86.91,-2.5,-3.41,-3.05,-102.14,-10.23,20.04,2025-03-12T10:25:24.086362
359.62,-187.74,920.41,1.77,0.43,-1.52,nan,nan,nan,2025-03-12T10:25:24.119692,966.55,-275.39,-93.99,-1.16,-3.41,-2.99,-101.78,-10.65,19.72,2025-03-12T10:25:24.119692
356.45,-179.44,916.99,1.77,0.55,-1.22,nan,nan,nan,2025-03-12T10:25:24.164244,961.91,-270.02,-94.48,-1.89,-3.17,-3.41,-101.34,-11.05,19.23,2025-03-12T10:25:24.164244
358.15,-179.69,923.1,1.59,0.55,-1.04,0.0,0.0,0.0,2025-03-12T10:25:24.220483,961.91,-266.85,-100.83,-2.74,-2.68,-3.23,-100.84,-11.38,18.93,2025-03-12T10:25:24.220483
357.42,-181.4,919.92,0.98,0.91,-1.16,nan,nan,nan,2025-03-12T10:25:24.267132,960.45,-270.02,-81.79,-3.96,-2.38,-3.23,-100.24,-11.74,18.46,2025-03-12T10:25:24.267132
354.49,-178.71,923.58,1.16,0.98,-1.22,0.0,0.0,0.0,2025-03-12T10:25:24.267872,966.31,-270.02,-94.73,-2.68,-2.99,-2.8,-99.72,-12.04,18.57,2025-03-12T10:25:24.267872
360.6,-178.96,921.63,1.28,0.67,-1.4,0.0,0.0,0.0,2025-03-12T10:25:24.299962,962.65,-259.28,-95.46,-2.87,-3.66,-2.74,-99.25,-12.39,18.33,2025-03-12T10:25:24.299962
353.52,-181.15,919.68,2.26,0.55,-1.89,nan,nan,nan,2025-03-12T10:25:24.369809,963.38,-265.14,-86.43,-3.72,-3.78,-1.65,-98.85,-12.73,18.09,2025-03-12T10:25:24.369809
364.99,-170.65,923.58,1.28,0.61,-1.28,0.0,0.0,0.0,2025-03-12T10:25:24.376738,959.47,-257.57,-106.2,-0.12,-5.0,-1.77,-98.56,-13.15,17.79,2025-03-12T10:25:24.376738
354.49,-176.51,929.2,2.07,0.79,-1.65,0.0,0.0,0.0,2025-03-12T10:25:24.411303,962.89,-264.65,-106.93,-1.83,-5.06,-0.98,-98.19,-13.75,16.96,2025-03-12T10:25:24.411303
351.56,-174.32,925.05,1.71,0.67,-1.46,0.0,0.0,0.0,2025-03-12T10:25:24.471138,970.21,-260.01,-117.19,-1.34,-4.94,-0.91,-97.97,-14.11,16.61,2025-03-12T10:25:24.471138
354.25,-173.1,922.36,1.83,1.1,-1.65,-139.63,-31.33,-4.43,2025-03-12T10:25:24.484030,959.96,-257.57,-127.2,0.3,-4.88,-0.73,-97.75,-14.39,16.34,2025-03-12T10:25:24.484030
353.52,-166.75,921.88,0.85,0.43,-1.04,nan,nan,nan,2025-03-12T10:25:24.518216,962.16,-260.5,-130.37,-0.91,-3.54,-0.73,-97.55,-14.63,16.23,2025-03-12T10:25:24.518216
353.76,-167.97,926.76,0.55,0.55,-1.04,nan,nan,nan,2025-03-12T10:25:24.576721,962.16,-259.77,-129.39,-2.2,-2.44,-0.79,-97.41,-14.85,16.09,2025-03-12T10:25:24.576721
353.27,-172.12,923.1,0.24,0.37,-0.73,0.0,0.0,0.0,2025-03-12T10:25:24.592886,959.96,-253.66,-126.95,-0.06,-2.2,-0.85,-97.31,-15.06,16.02,2025-03-12T10:25:24.592886
347.9,-162.35,923.34,0.12,0.43,-0.37,0.0,0.0,0.0,2025-03-12T10:25:24.628828,959.96,-259.28,-127.69,-1.04,-1.34,-0.67,-97.26,-15.25,15.99,2025-03-12T10:25:24.628828
354.0,-170.65,927.98,0.0,0.18,-0.73,0.0,0.0,0.0,2025-03-12T10:25:24.675915,964.84,-255.86,-122.31,-1.59,-1.1,-0.24,-97.22,-15.41,15.96,2025-03-12T10:25:24.675915
355.47,-168.46,927.98,-0.43,0.06,-0.67,0.0,0.0,0.0,2025-03-12T10:25:24.711247,960.69,-254.39,-123.05,-2.01,-0.73,-0.24,-97.18,-15.55,15.94,2025-03-12T10:25:24.711247
356.2,-170.17,925.05,-0.18,-0.06,-1.04,0.0,0.0,0.0,2025-03-12T10:25:24.776453,967.53,-252.2,-119.38,-1.28,-0.79,-0.12,-97.13,-15.65,15.92,2025-03-12T10:25:24.776453
353.52,-165.77,923.34,0.12,0.12,-0.55,nan,nan,nan,2025-03-12T10:25:24.778646,964.36,-257.57,-123.29,-1.28,-0.79,-0.12,-97.1,-15.73,15.92,2025-03-12T10:25:24.778646
352.29,-173.1,923.1,0.18,0.12,-0.85,0.0,0.0,0.0,2025-03-12T10:25:24.810942,964.36,-261.47,-119.38,-0.37,-0.67,-0.12,-97.08,-15.77,15.91,2025-03-12T10:25:24.810942
350.59,-167.72,932.13,0.12,0.0,-0.49,0.0,0.0,0.0,2025-03-12T10:25:24.883801,963.13,-257.81,-123.78,-1.04,-0.79,0.06,-97.1,-15.81,15.94,2025-03-12T10:25:24.883801
351.07,-164.31,927.98,0.3,0.0,-0.37,0.0,0.0,0.0,2025-03-12T10:25:24.884740,960.45,-261.47,-130.37,-0.18,-0.49,-0.06,-97.17,-15.82,15.98,2025-03-12T10:25:24.884740
351.81,-169.68,924.8,-0.18,-0.18,0.0,0.0,0.0,0.0,2025-03-12T10:25:24.919784,961.43,-259.03,-124.51,-0.24,-0.3,0.12,-97.22,-15.78,16.09,2025-03-12T10:25:24.919784
354.0,-171.39,930.42,0.06,0.06,-0.43,0.0,0.0,0.0,2025-03-12T10:25:24.983404,968.75,-255.13,-126.22,0.3,-0.37,0.12,-97.26,-15.73,16.17,2025-03-12T10:25:24.983404
354.74,-172.61,921.63,0.06,-0.24,-0.18,0.0,0.0,0.0,2025-03-12T10:25:24.994683,963.13,-262.45,-125.49,-0.3,-0.12,0.0,-97.32,-15.66,16.19,2025-03-12T10:25:24.994683
353.03,-171.88,932.37,0.0,-0.37,-0.24,0.0,0.0,0.0,2025-03-12T10:25:25.029611,966.8,-262.21,-116.46,0.06,-0.37,0.12,-97.39,-15.58,16.23,2025-03-12T10:25:25.029611
356.93,-167.48,922.61,0.37,-0.12,-0.24,0.0,0.0,0.0,2025-03-12T10:25:25.087258,959.72,-258.54,-121.09,1.1,-0.49,0.3,-97.48,-15.49,16.27,2025-03-12T10:25:25.087258
355.47,-168.46,928.47,0.12,0.12,-0.06,0.0,0.0,0.0,2025-03-12T10:25:25.105633,961.18,-255.62,-115.48,-0.49,-0.37,0.12,-97.6,-15.37,16.39,2025-03-12T10:25:25.105633
352.54,-173.83,928.71,0.12,-0.3,-0.49,0.0,0.0,0.0,2025-03-12T10:25:25.139342,966.8,-261.72,-118.65,-0.3,-0.37,0.3,-97.71,-15.25,16.48,2025-03-12T10:25:25.139342
352.78,-161.62,921.63,0.24,-0.06,-0.37,0.0,0.0,0.0,2025-03-12T10:25:25.191791,962.65,-257.32,-119.63,-0.61,-0.49,-0.06,-97.82,-15.14,16.6,2025-03-12T10:25:25.191791
350.83,-166.75,928.96,0.06,-0.18,-0.37,nan,nan,nan,2025-03-12T10:25:25.210819,965.33,-260.01,-121.83,0.61,-0.73,-0.06,-97.94,-15.03,16.65,2025-03-12T10:25:25.210819
355.71,-174.56,925.29,0.12,-0.06,-0.12,nan,nan,nan,2025-03-12T10:25:25.244387,963.87,-262.7,-123.29,-0.18,-0.67,0.06,-98.04,-14.93,16.67,2025-03-12T10:25:25.244387
355.96,-169.19,922.85,0.12,-0.43,-0.3,-98.04,-14.93,16.67,2025-03-12T10:25:25.291912,965.09,-259.77,-117.92,0.06,-0.67,-0.18,-98.14,-14.81,16.73,2025-03-12T10:25:25.291912
358.15,-171.63,927.25,0.24,-0.24,-0.55,0.0,0.0,0.0,2025-03-12T10:25:25.315713,962.16,-257.08,-121.58,0.0,-0.61,-0.12,-98.23,-14.69,16.81,2025-03-12T10:25:25.315713
354.49,-165.28,924.32,-0.12,-0.12,-0.37,0.0,0.0,0.0,2025-03-12T10:25:25.395698,962.16,-259.03,-117.43,-0.3,-0.49,0.12,-98.33,-14.58,16.92,2025-03-12T10:25:25.395698
354.25,-162.6,926.03,0.61,0.24,-0.49,0.0,0.0,0.0,2025-03-12T10:25:25.396009,961.18,-260.01,-121.58,0.43,-0.73,0.24,-98.51,-14.43,17.02,2025-03-12T10:25:25.396009
353.03,-167.72,926.51,0.18,-0.43,-0.24,0.0,0.0,0.0,2025-03-12T10:25:25.424416,959.47,-267.33,-125.24,0.3,-0.98,0.24,-98.64,-14.35,17.13,2025-03-12T10:25:25.424416
358.89,-168.46,916.75,0.3,-0.49,-0.18,0.0,0.0,0.0,2025-03-12T10:25:25.503257,963.38,-268.8,-124.27,-0.37,-0.43,0.06,-98.79,-14.29,17.16,2025-03-12T10:25:25.503257
353.52,-167.24,926.76,0.3,-0.55,-0.24,0.0,0.0,0.0,2025-03-12T10:25:25.503875,964.11,-262.94,-123.54,0.24,-0.3,0.61,-98.96,-14.24,17.23,2025-03-12T10:25:25.503875
351.32,-165.77,927.73,0.06,-0.67,-0.18,0.0,0.0,0.0,2025-03-12T10:25:25.615849,964.84,-260.25,-125.98,0.79,-0.18,0.79,-99.13,-14.2,17.29,2025-03-12T10:25:25.615849
