time,ankle_angle_l_moment,ankle_angle_r_moment,ground_force_right_vx,ground_force_right_vy,ground_force_right_vz,ground_force_right_px,ground_force_right_py,ground_force_right_pz,ground_torque_right_x,ground_torque_right_y,ground_torque_right_z,ground_force_left_vx,ground_force_left_vy,ground_force_left_vz,ground_force_left_px,ground_force_left_py,ground_force_left_pz,ground_torque_left_x,ground_torque_left_y,ground_torque_left_z,imu0_acc_x,imu0_acc_y,imu0_acc_z,imu0_gyro_x,imu0_gyro_y,imu0_gyro_z,imu0_roll,imu0_pitch,imu0_yaw,imu1_acc_x,imu1_acc_y,imu1_acc_z,imu1_gyro_x,imu1_gyro_y,imu1_gyro_z,imu1_roll,imu1_pitch,imu1_yaw
10.0,1.61368136,-27.62383831,8.54446849,616.67368288,-33.44546916,-1.41189767,0.0,0.65049094,0.0,-1.21099551,0.0,-0.06247478,0.02675234,0.01282347,-1.25653316,0.0,0.30418494,0.0,4.04e-06,0.0,1091.986463276663,-512.4051073445426,1323.122610169388,149.95968361578215,3.9,21.700960451970996,35.3124519773873,-10.69,-14.290395480219178,474.6883615820408,5791.033073444805,482.12368361566865,-46.390327683606145,104.64642937849743,-105.08978531070176,-82.52126553672994,-6.05063276836497,-11.78674576271517
10.01,1.58970192,-29.46609846,11.20312732,619.43729831,-34.93674053,-1.40988053,0.0,0.65198378,0.0,-1.65117002,0.0,-0.03357242,0.01447376,0.00619857,-1.35235731,0.0,0.30535514,0.0,1.131e-05,0.0,846.4497401128946,-385.5124519773492,1179.7327796609572,97.64329943500691,3.9,12.661412429374838,15.764429378523108,-10.69,-4.685875706210762,643.0499435028939,3642.1065197731346,269.8072994349415,-32.71801129942945,57.07580790958514,-58.875096045178886,-91.78680225989092,-10.683401129945462,-16.532508474578172
10.02,1.51535853,-28.52804164,17.23220372,608.91918196,-40.91397799,-1.41149466,0.0,0.65234063,0.0,-1.62024759,0.0,-0.21403657,0.09293531,0.03293489,-1.36886683,0.0,0.303821,0.0,-9e-08,0.0,600.9130169491262,-258.61979661015573,1036.3429491525264,45.32691525423165,3.9,3.621864406778685,-3.7835932203410856,-10.69,4.91864406779765,811.4115254237472,1493.1799661014632,57.49091525421433,-19.045694915252763,9.505186440672851,-12.660406779656036,-101.05233898305191,-15.316169491525955,-21.278271186441174
10.03,1.42416317,-27.52770114,22.29767989,603.62421856,-43.91933333,-1.41351937,0.0,0.65243369,0.0,-1.42157873,0.0,-0.9455942,0.41558579,0.11737854,-1.34459099,0.0,0.3003943,0.0,-5e-08,0.0,389.13289171165343,-150.00624198158002,911.0120107970796,0.1349152111780037,3.7345379485552783,-4.24563798031117,-20.853218164496518,-10.651816449666603,13.309578913940857,954.1311298825058,-363.03616957764984,-131.4111336932305,-6.702765322325093,-31.466473801207,27.343513496348088,-109.14873039060011,-19.354607176881522,-25.37048396316293
10.04,1.42139795,-26.80467536,27.35359341,604.79697116,-46.80509824,-1.41546119,0.0,0.65230886,0.0,-1.08211576,0.0,-2.44672809,1.09507439,0.23425207,-1.31988304,0.0,0.29741679,0.0,-7e-08,0.0,396.26531470307964,-159.93320292156136,902.7935287392831,1.1447596062240921,2.496049539536491,-4.512389329945987,-21.8503601143219,-10.366011432200729,13.830379167989785,930.5617427754867,-321.016480787556,-168.47051762463886,-2.9809488726583773,-29.643672912035758,27.07041092410292,-109.6631794220387,-19.538792632581753,-25.224405843124817
10.05,1.47227245,-26.34623586,32.03303733,612.23115261,-49.11968196,-1.41728369,0.0,0.65199598,0.0,-0.65362744,0.0,-4.22400658,1.93495212,0.30004331,-1.29510864,0.0,0.29491999,0.0,-5e-08,0.0,398.9302264440856,-163.82949841137554,899.5791543830408,1.709397364446082,2.0657572008958964,-4.696979009323412,-22.466183915828974,-10.175933121516737,14.094217537371744,920.4539327569145,-308.35575954476883,-186.3920150789106,-1.9486353455910033,-28.64925542997028,26.97256901401115,-109.98173212146467,-19.644753112141263,-25.14471131308922
10.06,1.53112871,-26.12027508,36.2981819,625.55134541,-49.46869764,-1.41901693,0.0,0.65154359,0.0,-0.12414806,0.0,-5.53685694,2.60732138,0.27277064,-1.27065242,0.0,0.29290668,0.0,-2e-08,0.0,398.0721088337934,-162.97007864992963,900.3109633314235,1.9229501536538491,2.272799234335134,-4.816776915464354,-22.7813044950258,-10.061343819990618,14.15541864159592,920.9617717068597,-318.8471913901772,-189.2215895359135,-3.037233710089133,-28.30809182769934,27.012935699776033,-110.14580316683161,-19.689026251367263,-25.117366138861396
10.07,1.55774859,-26.06230549,40.27771075,641.99523257,-49.34567951,-1.42057667,0.0,0.650992,0.0,0.43630864,0.0,-6.13866738,2.97782078,0.18804722,-1.24680562,0.0,0.29134304,0.0,1e-08,0.0,397.2139912235012,-162.11065888848375,901.0427722798063,2.136502942861616,2.4798412677743715,-4.936574821605297,-23.09642507422263,-9.946754518464498,14.216619745820097,921.469610656805,-329.3386232355856,-192.0511639929164,-4.1258320745872625,-27.966928225428394,27.053302385540917,-110.30987421219857,-19.733299390593263,-25.090020964633574
10.08,1.56093728,-26.1405116,43.99589976,660.04704797,-48.47619718,-1.42193899,0.0,0.65038452,0.0,1.02710383,0.0,-6.15959148,3.0819576,0.0872365,-1.22375849,0.0,0.29018661,0.0,3e-08,0.0,396.35587361320904,-161.25123912703785,901.7745812281889,2.350055732069383,2.686883301213609,-5.056372727746239,-23.411545653419456,-9.83216521693838,14.277820850044275,921.9774496067504,-339.83005508099404,-194.88073844991933,-5.214430439085392,-27.625764623157448,27.093669071305797,-110.4739452575655,-19.777572529819263,-25.06267579040575
10.09,1.53311646,-26.35163619,47.49894219,677.30141288,-47.61743456,-1.42298884,0.0,0.6497551,0.0,1.61516226,0.0,-5.81158318,3.00052063,0.00110987,-1.20162148,0.0,0.28938562,0.0,3e-08,0.0,395.49775600291684,-160.39181936559197,902.5063901765717,2.56360852127715,2.893925334652847,-5.176170633887182,-23.72666623261628,-9.71757591541226,14.339021954268452,922.4852885566957,-350.32148692640243,-197.71031290692224,-6.303028803583521,-27.2846010208865,27.13403575707068,-110.63801630293244,-19.821845669045263,-25.035330616177927
10.1,1.48067272,-26.73941242,50.4236684,692.16611859,-46.60423997,-1.4235609,0.0,0.64914263,0.0,2.17454361,0.0,-5.26953016,2.80782537,-0.06058238,-1.18045361,0.0,0.28888412,0.0,3e-08,0.0,394.63963839262465,-159.53239960414606,903.2381991249543,2.7771613104849173,3.1009673680920846,-5.295968540028124,-24.04178681181311,-9.602986613886141,14.400223058492628,922.993127506641,-360.81291877181087,-200.53988736392515,-7.3916271680816505,-26.94343741861556,27.174402442835564,-110.8020873482994,-19.866118808271263,-25.0079854419501
10.11,1.37364662,-27.30869774,52.18761722,703.09526419,-45.18282113,-1.42354998,0.0,0.64855915,0.0,2.71245055,0.0,-4.66221212,2.5648991,-0.09561013,-1.16029699,0.0,0.28862155,0.0,3e-08,0.0,393.78152078233245,-158.6729798427002,903.9700080733371,2.990714099692684,3.308009401531322,-5.415766446169067,-24.356907391009937,-9.488397312360023,14.461424162716805,923.5009664565863,-371.30435061721926,-203.36946182092805,-8.48022553257978,-26.602273816344614,27.214769128600448,-110.96615839366633,-19.910391947497263,-24.98064026772228
10.12,1.25201474,-28.22451162,52.96398846,710.03444172,-43.37368385,-1.42272837,0.0,0.64801799,0.0,3.2088764,0.0,-4.09715422,2.33058042,-0.12330439,-1.1412101,0.0,0.2885755,0.0,2e-08,0.0,392.92340317204025,-157.81356008125428,904.7018170217198,3.2042668889004515,3.5150514349705597,-5.5355643523100095,-24.672027970206763,-9.373808010833903,14.522625266940983,924.0088054065316,-381.7957824626277,-206.199036277931,-9.56882389707791,-26.261110214073668,27.25513581436533,-111.13022943903329,-19.954665086723264,-24.953295093494454
10.13,1.12715864,-29.5989613,52.91237832,713.0202969,-41.94444474,-1.42092323,0.0,0.64749377,0.0,3.68479671,0.0,-3.64817845,2.14964238,-0.15453725,-1.12326619,0.0,0.28876427,0.0,1e-08,0.0,397.32309328317723,-147.16334502839368,915.2343169240785,-0.6128234528158567,0.5723199623829012,-6.576890801895324,-27.322352877346546,-8.818689188700402,14.713025283032517,935.7553557347994,-350.93323434730706,-200.3121883025283,-14.244118349187978,-23.48863818859189,26.642638622635367,-112.3040503490433,-20.34075632075813,-25.333579773573984
10.14,1.00838866,-31.64500532,52.75703443,713.18077922,-42.3802296,-1.41789239,0.0,0.64694723,0.0,4.15323569,0.0,-3.36017688,2.05534394,-0.20162178,-1.10653484,0.0,0.28923639,0.0,1e-08,0.0,395.6447918399826,-146.19036423481748,920.0015611097047,-0.7647386696567503,-0.6864061200130738,-6.486465077585268,-27.448948891380624,-8.594433392411464,14.568344124136429,946.8813368539087,-369.4777418888133,-193.51217383441212,-12.851562194813122,-24.414597605526858,26.707745144138606,-112.44511447896699,-20.304586031034106,-25.449324700690855
10.15,0.90772704,-34.58802772,51.80458843,712.52584445,-43.53586059,-1.41333364,0.0,0.64635663,0.0,4.64575606,0.0,-3.26256186,2.07737897,-0.27926812,-1.09107822,0.0,0.29005717,0.0,1e-08,0.0,393.95258691402495,-145.36112384529898,924.5381187473647,-0.9213043811568307,-1.9152389896125277,-6.396586300739769,-27.565467055080678,-8.376306489324996,14.428321131511362,957.2522204760622,-387.2168273985204,-186.8610843650578,-11.55413699260231,-25.321545478937523,26.765578979646584,-112.57809728237955,-20.26647437617386,-25.561846755337502
10.16,0.81251347,-38.74828909,50.21209635,712.84005985,-44.04187438,-1.40694683,0.0,0.64567691,0.0,5.12649016,0.0,-3.39251896,2.25694668,-0.41532451,-1.07695092,0.0,0.29129897,0.0,1e-08,0.0,391.95685435751966,-147.66988743659536,924.0385467693919,-1.179395275147906,-2.4914716291668593,-6.318647961465237,-27.46197516194564,-8.291979761585338,14.389990800720607,951.138532714937,-387.3727040770695,-183.46118402391792,-12.333520385347637,-25.8134513907522,26.664642441897602,-112.53465624081669,-20.185980681513275,-25.60401011920733
10.17,0.75778372,-44.70885547,49.80798202,716.67607525,-45.08073384,-1.39823041,0.0,0.64483352,0.0,5.61770221,0.0,-3.81496073,2.6680588,-0.67543908,-1.0642105,0.0,0.293051,0.0,1e-08,0.0,389.96112180101443,-149.97865102789177,923.538974791419,-1.4374861691389813,-3.067704268721191,-6.240709622190704,-27.358483268810605,-8.20765303384568,14.351660469929854,945.0248449538117,-387.5285807556186,-180.06128368277808,-13.112903778092964,-26.305357302566872,26.563705904148616,-112.49121519925383,-20.105486986852693,-25.64617348307716
10.18,0.73170743,-52.61236934,47.10582196,726.45968114,-45.99851875,-1.38706266,0.0,0.6437289,0.0,5.97496433,0.0,-4.6197241,3.42597558,-1.18099403,-1.05289588,0.0,0.29538955,0.0,1e-08,0.0,387.9653892445092,-152.28741461918818,923.0394028134463,-1.6955770631300564,-3.6439369082755224,-6.162771282916172,-27.254991375675573,-8.123326306106021,14.3133301391391,938.9111571926865,-387.68445743416765,-176.6613833416382,-13.89228717083829,-26.797263214381545,26.46276936639963,-112.44777415769097,-20.02499329219211,-25.68833684694699
10.19,0.8160136,-63.06051416,49.38583716,741.96591565,-48.906359,-1.37342902,0.0,0.64219883,0.0,6.45865238,0.0,-5.89480764,4.71192175,-2.18154238,-1.04304306,0.0,0.29836593,0.0,0.0,0.0,385.96965668800397,-154.5961782104846,922.5398308354734,-1.953667957121132,-4.220169547829854,-6.084832943641638,-27.151499482540537,-8.038999578366363,14.274999808348348,932.7974694315612,-387.84033411271673,-173.26148300049834,-14.671670563583616,-27.289169126196217,26.36183282865065,-112.40433311612813,-19.94449959753153,-25.730500210816817
10.2,0.92778378,-75.4766695,51.36309438,763.09403308,-49.42157705,-1.35828733,0.0,0.64018387,0.0,6.42295219,0.0,-7.63574325,6.70717608,-3.99409685,-1.03460562,0.0,0.30194089,0.0,-1e-08,0.0,383.9739241314987,-156.90494180178098,922.0402588575006,-2.211758851112207,-4.796402187384185,-6.006894604367106,-27.0480075894055,-7.954672850626705,14.236669477557593,926.683781670436,-387.9962107912658,-169.8615826593585,-15.451053956328943,-27.78107503801089,26.260896290901663,-112.36089207456527,-19.864005902870947,-25.772663574686646
10.21,1.11272277,-88.71050646,46.58754547,788.6797442,-44.28148497,-1.34278247,0.0,0.63765208,0.0,6.08564138,0.0,-10.13773775,10.13559132,-7.52083381,-1.0274856,0.0,0.3060577,0.0,-1.1e-07,0.0,381.9781915749931,-159.2137053930778,921.5406868795277,-2.4698497451033283,-5.3726348269386195,-5.928956265092559,-26.94451569627045,-7.870346122887032,14.198339146766832,920.5700939093098,-388.1520874698149,-166.46168231821804,-16.230437349074407,-28.27298094982565,26.15995975315266,-112.3174510330024,-19.783512208210347,-25.814826938556486
10.22,1.47692142,-100.72319845,41.89337848,807.13627325,-38.24507295,-1.32840125,0.0,0.63455987,0.0,5.53556983,0.0,-14.9407149,18.06856032,-16.16586065,-1.02158049,0.0,0.31067276,0.0,-5.9e-07,0.0,379.9824590184879,-161.5224689843742,921.0411149015549,-2.7279406390944034,-5.948867466492951,-5.851017925818026,-26.841023803135414,-7.786019395147373,14.160008815976079,914.4564061481846,-388.30796414836396,-163.06178197707817,-17.009820741819734,-28.76488686164032,26.059023215403673,-112.27400999143956,-19.703018513549765,-25.856990302426315
10.23,1.93426381,-109.62726533,38.02704364,812.66712547,-32.59366921,-1.31613365,0.0,0.63102612,0.0,4.85508463,0.0,-21.5230811,34.67201471,-35.62953019,-1.01678844,0.0,0.31573899,0.0,-3.42e-06,0.0,388.5580468618684,-164.20302215349446,914.8360443069888,-3.5870575184051985,-7.78562611355762,-11.184136551584976,-25.589398594816295,-7.2233089050996755,14.13916361313746,934.2434269001914,-382.94286280969516,-151.16578478501987,-26.15892224425996,-32.804643157293135,29.03798231754462,-111.49901704373552,-18.606926076579157,-25.69041819343127
10.24,2.09501652,-113.72394339,38.03451622,804.69687789,-28.83441213,-1.30776222,0.0,0.62722181,0.0,4.02688482,0.0,-23.64886264,59.49752718,-66.02247386,-1.01305257,0.0,0.32112573,0.0,-2.427e-05,0.0,391.5970087739939,-165.35271792113483,917.1354358422697,-4.447648502369938,-10.081655965307295,-13.870121692943673,-25.18263488755171,-7.169521968601879,14.132440246075236,947.2934823679692,-380.0719850741253,-173.0772380408096,-24.703313275288348,-34.7712280229938,29.18253470938245,-111.16957205768651,-18.260672672874595,-25.693779876962385
10.25,1.7048274,-112.27127675,35.03509866,771.91420961,-24.47922159,-1.30147108,0.0,0.62349233,0.0,2.87832887,0.0,-17.85338457,87.01090038,-97.00782645,-1.01035434,0.0,0.32650287,0.0,-0.00020333,0.0,394.6359706861193,-166.50241368877522,919.4348273775504,-5.308239486334677,-12.377685817056971,-16.55610683430237,-24.775871180287126,-7.115735032104083,14.12571687901301,960.3435378357469,-377.2011073385554,-194.9886912965993,-23.247704306316738,-36.73781288869448,29.32708710122028,-110.84012707163751,-17.914419269170033,-25.697141560493495
10.26,1.01607164,-106.40145286,30.00950977,714.34642826,-21.78481495,-1.29554235,0.0,0.61999359,0.0,1.54087495,0.0,-3.92660124,112.06498596,-118.44638173,-1.0084293,0.0,0.33123357,0.0,-0.00172578,0.0,397.10404985505505,-166.43147617465962,921.4286500483149,-6.071643314409926,-14.616598019084194,-18.845650591858917,-24.398130661915715,-7.072486260417923,14.116383621210293,970.8937007790801,-373.8550012078761,-214.46442444739634,-22.07622493658649,-38.68846116680735,29.45406842613842,-110.53717160888998,-17.59265113540285,-25.70067807102307
10.27,0.23207972,-97.7356556,25.89191645,643.05000076,-20.49399401,-1.29015543,0.0,0.61697054,0.0,0.24331888,0.0,15.33015225,131.57597662,-124.04942073,-1.00682988,0.0,0.33455254,0.0,-0.01559391,0.0,396.32949978862194,-159.42730900471165,921.6868334037927,-6.283021500181152,-16.531080444497867,-18.88339669646092,-24.18524263196041,-7.089094546442805,14.09222611426501,967.2444073861583,-367.80958509481906,-220.1052023191199,-22.518609282521986,-40.54858920159414,29.481245621451862,-110.38467734629788,-17.40995998912915,-25.70520760357531
10.28,3.0352157,-87.59307079,16.14141702,570.8059492,-17.77770552,-1.28547736,0.0,0.61465677,0.0,-0.82617305,0.0,19.27580156,144.92209891,-26.50724044,-1.00567515,0.0,0.33907017,0.0,-0.0961559,0.0,395.5549497221888,-152.4231418347637,921.9450167592704,-6.494399685952379,-18.44556286991154,-18.921142801062924,-23.972354602005105,-7.105702832467687,14.068068607319727,963.5951139932365,-361.764168981762,-225.74598019084345,-22.96099362845748,-42.40871723638092,29.508422816765304,-110.23218308370579,-17.227268842855445,-25.70973713612755
10.29,4.33931681,-76.33956845,11.52572734,490.4923961,-17.09061074,-1.2805556,0.0,0.61272514,0.0,-1.46279371,0.0,17.94670429,162.88016122,-3.9339268,-1.0044897,0.0,0.33913892,0.0,-0.17540503,0.0,394.7803996557557,-145.41897466481572,922.2032001147481,-6.705777871723605,-20.360045295325214,-18.958888905664928,-23.7594665720498,-7.1223111184925685,14.043911100374444,959.9458206003146,-355.71875286870494,-231.38675806256703,-23.403377974392974,-44.26884527116771,29.53560001207875,-110.07968882111369,-17.044577696581744,-25.71426666867979
10.3,5.32567771,-65.30825856,4.83669735,415.42439889,-14.98892743,-1.27559478,0.0,0.61122282,0.0,-1.73898791,0.0,13.90048946,185.43752969,-2.25385025,-1.00321852,0.0,0.33811342,0.0,-0.2576741,0.0,394.0058495893224,-138.4148074948665,922.4613834702259,-6.917156057494868,-22.27452772073923,-18.99663501026694,-23.546578542094455,-7.138919404517454,14.019753593429158,956.2965272073922,-349.6733367556468,-237.0275359342916,-23.845762320328546,-46.12897330595483,29.562777207392195,-109.92719455852156,-16.861886550308007,-25.71879620123203
10.31,6.3226289,-54.84195162,-0.17274215,345.22169174,-12.39618372,-1.27048803,0.0,0.60999594,0.0,-1.69829892,0.0,11.85358973,218.32054431,7.78394918,-1.00060591,0.0,0.33610898,0.0,-0.40561796,0.0,393.23129952288923,-131.41064032491852,922.7195668257036,-7.128534243266094,-24.189010146152903,-19.034381114868946,-23.33369051213915,-7.1555276905423355,13.995596086483875,952.6472338144704,-343.62792064258974,-242.66831380601516,-24.28814666626404,-47.98910134074162,29.58995440270564,-109.77470029592946,-16.679195404034306,-25.723325733784275
10.32,7.28858219,-45.56268034,-5.1689474,284.85973511,-8.88771073,-1.26537022,0.0,0.60898893,0.0,-1.46282065,0.0,5.52804549,266.80113339,13.31770598,-0.99672533,0.0,0.33259991,0.0,-0.5715727,0.0,392.45674945645607,-124.40647315497054,922.9777501811814,-7.339912429037319,-26.103492571566576,-19.07212721947095,-23.12080248218384,-7.172135976567218,13.971438579538592,948.9979404215486,-337.5825045295327,-248.30909167773873,-24.730531012199535,-49.84922937552841,29.617131598019082,-109.62220603333736,-16.496504257760602,-25.727855266336515
10.33,7.99841865,-37.41687354,-9.78387314,233.34877045,-5.09674321,-1.2602159,0.0,0.60815168,0.0,-1.1194725,0.0,-0.60369682,328.96940285,18.79748383,-0.99259886,0.0,0.32894266,0.0,-0.59039354,0.0,420.74832361146355,-144.65075323357925,924.4791782906419,-5.87843773776306,-63.917291402485624,-6.526010651788025,-21.637314227745364,-7.108828303322343,13.711919857976158,988.8988181587641,-408.13072026375823,-249.08370022825258,-7.057217854425439,-65.72273903119456,29.74276692873447,-108.24676895764645,-15.33965762110068,-26.18979710880041
10.34,8.46782505,-30.52404415,-13.59384835,191.08503789,-1.77778439,-1.25535274,0.0,0.6077958,0.0,-0.78920121,0.0,-8.18547085,401.6386095,23.63003807,-0.98868679,0.0,0.3255381,0.0,-0.33154651,0.0,431.75517118944964,-187.511519147857,939.3381407275904,-2.1672195451855574,-75.44827457942347,-9.152324513202021,-21.33579536168174,-7.103192436666949,13.528754191675825,1091.6829362865276,-387.8359644376814,-248.1875974300448,0.07497139797673213,-68.04471609321723,29.948476061656383,-107.89452729168427,-15.049410488347846,-26.42932144165469
10.35,8.78291624,-24.85666887,-16.54508721,157.44990927,0.26775479,-1.25093605,0.0,0.60799448,0.0,-0.53428326,0.0,-16.68164831,479.81257829,33.17519571,-0.9851925,0.0,0.32265228,0.0,0.29853462,0.0,442.7620187674358,-230.37228506213478,954.1971031645389,1.5439986473919465,-86.9792577563613,-11.778638374616015,-21.034276495618116,-7.0975565700115535,13.345588525375492,1194.467054414291,-367.5412086116046,-247.29149463183703,7.2071606503789045,-70.36669315523991,30.154185194578293,-107.54228562572209,-14.75916335559501,-26.66884577450897
10.36,8.08350437,-20.27432841,-17.61772374,130.04242864,1.42269645,-1.24647431,0.0,0.60826382,0.0,-0.31768578,0.0,-25.97678408,561.92329805,41.07187454,-0.98118427,0.0,0.31935164,0.0,1.43814744,0.0,453.7688663454219,-273.2330509764125,969.0560656014874,5.255216839969449,-98.51024093329914,-14.404952236030013,-20.73275762955449,-7.091920703356159,13.16242285907516,1297.2511725420545,-347.2464527855277,-246.39539183362925,14.339349902781077,-72.68867021726258,30.359894327500204,-107.19004395975992,-14.468916222842177,-26.90837010736325
10.37,5.74693399,-16.57025126,-17.33936327,107.70675987,2.23156002,-1.24218159,0.0,0.6085619,0.0,-0.14941046,0.0,-37.25450743,645.43690447,50.62812882,-0.97601997,0.0,0.3151704,0.0,3.37335902,0.0,464.5970213509002,-270.69734677355495,973.0212461306454,5.996783871735899,-107.7422722438284,-17.042309707119454,-20.452106516390206,-7.1077893483609795,12.965010238907862,1312.0461858877707,-320.0961858877707,-240.7762170013498,15.736124930550137,-73.46639638066513,30.95949472180327,-106.90884943249465,-14.243381696960087,-27.074761012778783
10.38,2.44487466,-13.66305284,-15.00908128,89.57131395,2.37897316,-1.23884455,0.0,0.60880199,0.0,-0.05433447,0.0,-47.06530051,712.81876351,57.6511121,-0.97113618,0.0,0.31133068,0.0,5.82228543,0.0,475.3327940312732,-244.69210826255832,971.3544471783473,5.203070084927308,-115.78576775934665,-19.685376617192063,-20.182243828875283,-7.134775617112472,12.760232081911246,1281.351686324309,-289.40168632430886,-232.71525978252174,14.16774648781636,-73.44575982220812,31.762733074053564,-106.66438558615761,-14.051302960552409,-27.203342646241776
10.39,-1.10795889,-11.3393278,-11.72527237,74.9152599,2.02069424,-1.23684086,0.0,0.60892202,0.0,-0.02195135,0.0,-49.46315416,752.98482888,63.58091236,-0.96701523,0.0,0.308273,0.0,8.05840667,0.0,486.0685667116443,-218.68686975156626,969.6876482260496,4.409356298118858,-123.8292632748635,-22.3284435272642,-19.912381141360413,-7.1617618858639585,12.555453924914666,1250.6571867608525,-258.7071867608525,-224.65430256369513,12.599368045082866,-73.42512326375109,32.56597142630372,-106.41992173982061,-13.859224224144764,-27.331924279704744
10.4,-4.27381043,-9.3067618,-8.70379493,62.08076388,1.24207314,-1.23522953,0.0,0.60897675,0.0,-0.0079219,0.0,-46.58725137,764.8920695,64.46772186,-0.96375444,0.0,0.30593827,0.0,9.6835637,0.0,496.8043393920154,-192.68163124057423,968.0208492737519,3.6156425113104085,-131.87275879038032,-24.971510437336338,-19.64251845384554,-7.188748154615446,12.350675767918085,1219.9626871973962,-228.01268719739613,-216.5933453448685,11.030989602349369,-73.40448670529408,33.369209778553866,-106.17545789348361,-13.667145487737118,-27.460505913167715
10.41,-7.16721549,-7.52199046,-6.69857261,51.33707082,1.00097672,-1.23392173,0.0,0.60904934,0.0,-0.00301087,0.0,-36.76106123,756.45429207,58.81337968,-0.96111643,0.0,0.30409242,0.0,10.70364676,0.0,507.5401120723865,-166.67639272958218,966.3540503214541,2.8219287245019586,-139.91625430589716,-27.614577347408478,-19.372655766330666,-7.215734423366933,12.145897610921505,1189.2681876339398,-197.31818763393974,-208.5323881260419,9.462611159615872,-73.38385014683705,34.17244813080402,-105.9309940471466,-13.475066751329473,-27.589087546630683
10.42,-9.43131339,-5.80781854,-6.3060214,42.10090761,2.4018413,-1.23280879,0.0,0.60922285,0.0,-0.00154133,0.0,-25.59146686,736.08180015,53.36787813,-0.95893283,0.0,0.30259575,0.0,11.22874697,0.0,518.2758847527575,-140.67115421859012,964.6872513691563,2.028214937693509,-147.959749821414,-30.257644257480614,-19.102793078815793,-7.242720692118421,11.941119453924927,1158.5736880704835,-166.62368807048338,-200.47143090721528,7.8942327168823745,-73.36321358838002,34.97568648305417,-105.6865302008096,-13.282988014921829,-27.71766918009365
10.43,-10.96700185,-4.1153176,-6.96671555,33.88829692,3.80523437,-1.231683,0.0,0.6092929,0.0,-0.00090034,0.0,-16.84372335,712.38323488,49.21756614,-0.95720325,0.0,0.30137942,0.0,11.35352587,0.0,519.3554311103297,-164.7402173147933,922.7478770015889,-9.515314974483896,-172.2153044166789,-33.7253976772829,-18.59770631708609,-7.297976420904447,11.59163557979943,1133.5115247228584,-151.2961472813649,-190.4426887207467,8.415386239661956,-80.39462607777492,39.85095900052733,-104.95402428294922,-12.75808287876127,-28.024693823684647
10.44,-12.41599412,-2.37212532,-7.75916747,26.02769569,4.61995516,-1.23036915,0.0,0.60917318,0.0,-0.0005147,0.0,-4.43209982,691.51209659,44.5841247,-0.95578035,0.0,0.30034597,0.0,11.17280467,0.0,514.9750389052857,-256.5217356825567,836.0775863816593,-26.561156724204803,-213.58109769549532,-38.41600482962168,-17.79353486569478,-7.376674417911338,11.073441850758726,1110.901472140238,-181.19808335569252,-182.98288435739198,14.131023760546148,-96.49393971916643,49.72028381480488,-103.59227439406135,-11.80353486569478,-28.56054884774767
10.45,-13.76546754,-0.49499473,-10.07687785,18.92281637,4.39983014,-1.22883402,0.0,0.60879709,0.0,-0.00026974,0.0,10.14882554,674.66329389,41.75678916,-0.95459103,0.0,0.29945975,0.0,10.86270679,0.0,551.4386825865281,-273.696705124764,843.2832626777564,3.868441105444539,-214.0342473839549,-42.25287094177595,-17.405972632143843,-7.3617681781593785,10.864754494231299,1061.9165870673498,-273.3454762543534,-196.66681244969047,24.982766299972383,-100.45601824523717,51.73858867722014,-103.064593506842,-11.415972632143843,-28.787123691977445
10.46,-14.24195069,0.9903278,-11.17946798,12.72009738,2.97745274,-1.22640471,0.0,0.60815678,0.0,-1.771e-05,0.0,16.34777076,661.6565975,44.73323375,-0.95380327,0.0,0.29878803,0.0,10.41775027,0.0,587.902326267777,-290.8716745669743,850.4889389738547,34.29803893509928,-214.48739707241452,-46.08973705393091,-17.018410398592835,-7.346861938407417,10.656067137703836,1012.9317019944531,-365.49286915303065,-210.35074054199137,35.83450883940055,-104.41809677130861,53.75689353963576,-102.53691261962256,-11.028410398592838,-29.013698536207265
10.47,-14.51493303,1.44497402,-7.41402897,7.71927082,1.08350538,-1.22218546,0.0,0.60739647,0.0,-5.81e-06,0.0,19.47563261,654.15053502,46.28706676,-0.95327001,0.0,0.29818166,0.0,9.86646166,0.0,624.3659699490194,-308.04664400918165,857.6946152699518,64.72763676474861,-214.9405467608741,-49.92660316608519,-16.630848165041897,-7.331955698655458,10.447379781176409,963.9468169215651,-457.64026205169154,-224.03466863428983,46.68625137882679,-108.38017529737934,55.775198402051025,-102.0092317324032,-10.6408481650419,-29.240273380437042
10.48,-14.80594082,1.68798697,-4.91058344,4.69949489,0.43085184,-1.21647423,0.0,0.60677894,0.0,-2.04e-06,0.0,22.30672659,650.55014764,46.20181435,-0.95285392,0.0,0.29758868,0.0,9.198772,0.0,670.5347856058336,-317.33366991850016,936.6350451126465,52.58759044344864,-210.73795082110283,-46.31502259995485,-16.43444442505367,-7.360324078113819,10.27292822114798,935.7169878361645,-485.2392497513124,-249.92854487705145,48.11,-109.54741906773003,57.14834505506006,-101.67011570478701,-10.429282385996762,-29.473171323362582
10.49,-14.90672506,1.81964185,-3.71591621,3.25891163,0.23109732,-1.20900033,0.0,0.60619572,0.0,-7e-07,0.0,23.19392312,649.21165934,47.10013726,-0.95257074,0.0,0.2970581,0.0,8.4225758,0.0,718.169207343674,-325.4295146681555,1026.408347498294,34.01897907540974,-205.83227727264818,-41.57863056491185,-16.266908081883393,-7.395227482940959,10.103646707736347,910.6214397654504,-503.09059615015354,-277.6662806931802,48.11,-110.29260676078948,58.424064501492055,-101.35947540182546,-10.244294340412916,-29.707024135704426
10.5,-14.92266108,1.89821585,-3.09827124,2.48684633,0.15843583,-1.19954385,0.0,0.60557169,0.0,-2.4e-07,0.0,22.90603636,649.84861373,48.24232107,-0.95237618,0.0,0.29656934,0.0,7.63383713,0.0,765.8036290815144,-333.52535941781076,1116.1816498839414,15.45036770737083,-200.92660372419354,-36.84223852986884,-16.09937173871312,-7.4301308877681,9.934365194324714,885.5258916947362,-520.9419425489947,-305.40401650930903,48.11,-111.03779445384893,59.699783947924054,-101.0488350988639,-10.05930629482907,-29.94087694804627
10.51,-14.93947979,1.93020295,-2.64562904,1.94497589,0.12612346,-1.18795984,0.0,0.6048549,0.0,-8e-08,0.0,22.31460502,651.66590988,49.06906226,-0.95223309,0.0,0.29610594,0.0,6.85418202,0.0,813.4380508193548,-341.6212041674661,1205.9549522695888,-3.118243660668071,-196.0209301757389,-32.10584649482583,-15.931835395542844,-7.465034292595241,9.765083680913083,860.4303436240219,-538.7932889478359,-333.1417523254378,48.11,-111.7829821469084,60.975503394356046,-100.73819479590236,-9.874318249245224,-30.17472976038811
10.52,-15.15069453,1.92476684,-2.33119418,1.57448803,0.1142956,-1.17417653,0.0,0.60399546,0.0,-3e-08,0.0,23.12829992,654.12156907,48.80611043,-0.95202959,0.0,0.29560611,0.0,6.14074946,0.0,861.0724725571952,-349.71704891712136,1295.7282546552365,-21.686855028706972,-191.11525662728428,-27.369454459782826,-15.764299052372568,-7.499937697422382,9.59580216750145,835.3347955533077,-556.644635346677,-360.8794881415666,48.11,-112.52816983996784,62.251222840788046,-100.4275544929408,-9.689330203661378,-30.408582572729955
10.53,-15.31502792,1.87655458,-2.19873767,1.37065802,0.11838548,-1.15819525,0.0,0.60294035,0.0,-1e-08,0.0,21.43227322,656.20497404,48.03295537,-0.95174143,0.0,0.29503287,0.0,5.48966955,0.0,814.0261222920614,-419.0881092167334,1359.8974137931104,-32.29717408024902,-174.15701640815965,-20.054081528010975,-15.553325855659565,-7.544223817459293,9.343321369055307,823.704230867832,-539.6377015767384,-369.8376586335166,41.11188181002813,-107.77117228560732,61.26887770798728,-100.0230957569543,-9.441101140879422,-30.746015254454484
10.54,-15.55738177,1.83074066,-2.2727639,1.31717461,0.13906982,-1.14010827,0.0,0.60163674,0.0,-1e-08,0.0,19.27415796,658.09828806,48.96234208,-0.95123504,0.0,0.29435528,0.0,4.91735086,0.0,179.0306088964063,-868.9663299576191,1265.0698275862235,6.511952954742611,-82.35468337394246,3.2762607357990277,-15.072618254070074,-7.646774772465051,8.57418920651212,895.6885918471864,-306.16763363675403,-262.178384181534,-9.343188052804926,-68.84667542623421,46.26439110370727,-99.03604281502389,-8.800157672093432,-31.726658761697045
10.55,-15.90555381,1.79709045,-2.61278834,1.41737448,0.17667718,-1.12005304,0.0,0.60007699,0.0,-0.0,0.0,16.74235677,658.71793737,51.34454759,-0.95044309,0.0,0.2935268,0.0,4.40083069,0.0,-83.73668270532002,-911.7199266231678,1254.321617598411,27.006989143836474,-28.76649114365683,8.346721498812336,-14.694291041409803,-7.716095389889634,8.133440591826306,902.0326794574935,-236.2596451447978,-215.2273178359848,-40.253116410549026,-43.33792800649603,34.9540408384208,-98.36774456440021,-8.342113192794642,-32.34354404113914
10.56,-16.35681297,1.75860302,-3.326984,1.701221,0.23927359,-1.09818385,0.0,0.59829299,0.0,0.0,0.0,12.10103878,658.21986917,52.67740918,-0.94933346,0.0,0.29247959,0.0,3.92875834,0.0,-75.29533906715182,-657.8390737677798,1304.8343532914323,34.15822361892162,-3.0214455838570373,0.11287793582532046,-14.390559047304002,-7.761204101885545,7.9319550115779025,860.5507079060535,-285.5243731392657,-212.50876612636455,-56.92228911677145,-27.604009262322162,26.335269599735344,-97.93169368177307,-8.017330466424081,-32.695391994707244
10.57,-17.08670541,1.77104679,-4.56703305,2.22173468,0.34858363,-1.07470814,0.0,0.59629951,0.0,0.0,0.0,8.10171729,656.25637186,53.15698145,-0.94782605,0.0,0.2911991,0.0,3.48125279,0.0,-66.85399542898361,-403.95822091239165,1355.3470889844539,41.30945809400676,22.723599975942747,-8.120965627161691,-14.0868270531982,-7.806312813881456,7.730469431329499,819.0687363546135,-334.78910113373365,-209.79021441674428,-73.59146182299389,-11.870090518148295,17.71649836104989,-97.49564279914593,-7.69254774005352,-33.047239948275354
10.58,-18.07754983,1.85085859,-6.49923428,3.03527097,0.53258124,-1.04984674,0.0,0.59408603,0.0,1e-08,0.0,5.0830953,652.53520005,52.68141537,-0.94595167,0.0,0.28971336,0.0,3.06217817,0.0,-61.21372575446832,-213.26104424260166,1379.1233513038358,46.63763551128039,45.14696220334071,-15.04797363023746,-13.838238499853498,-7.848407852329331,7.590386170524467,788.5727096396133,-375.2992382068567,-212.13109405215425,-83.67838265455572,1.4814485789630605,9.376857896278612,-97.08493231760913,-7.390155874597118,-33.304559624963375
10.59,-19.28518402,2.02024458,-9.17149192,4.14614364,0.81783823,-1.02379473,0.0,0.5916262,0.0,2e-08,0.0,3.67391296,646.70402057,52.20168848,-0.94373728,0.0,0.28806166,0.0,2.68529494,0.0,-63.83507549565393,-208.92077663834348,1324.0418003711286,46.58880261744311,57.77319523390987,-18.12053931047961,-13.752292606699871,-7.881614220138686,7.631405801347789,790.4791458150211,-389.98817267311296,-229.39449868151226,-74.35129993163373,7.806284988768585,1.8604988768432627,-96.74896200800859,-7.1538046684246455,-33.28307315167497
10.6,-20.53454743,2.20952445,-12.24302601,5.39816722,1.19668262,-0.99670542,0.0,0.58888881,0.0,3e-08,0.0,3.27017856,639.12763279,51.78773057,-0.9413903,0.0,0.28637096,0.0,2.37424608,0.0,-66.45642523683955,-204.58050903408534,1268.9602494384214,46.53996972360582,70.39942826447901,-21.193104990721764,-13.666346713546243,-7.914820587948042,7.672425432171111,792.3855819904288,-404.6771071393691,-246.65790331087027,-65.02421720871175,14.13112139857411,-5.6558601425920845,-96.41299169840805,-6.917453462252172,-33.261586678386564
10.61,-21.75057451,2.3696668,-15.17449195,6.57137,1.61863236,-0.96869696,0.0,0.58585376,0.0,6e-08,0.0,4.0863555,630.22589478,52.11693913,-0.93901176,0.0,0.28471163,0.0,2.14349065,0.0,-69.07777497802516,-200.2402414298272,1213.878698505714,46.49113682976853,83.02566129504817,-24.265670670963917,-13.580400820392617,-7.948026955757397,7.713445062994433,794.2920181658365,-419.3660416056253,-263.9213079402283,-55.69713448578976,20.455957808379633,-13.172219162027433,-96.07702138880751,-6.681102256079699,-33.24010020509816
10.62,-22.91932807,2.4444279,-17.41852213,7.4559134,2.00988368,-0.93987466,0.0,0.58251502,0.0,1e-07,0.0,6.56200271,620.81994325,52.39314798,-0.93674302,0.0,0.28315863,0.0,1.99234232,0.0,-71.69912471921077,-195.89997382556905,1158.797147573007,46.44230393593124,95.65189432561732,-27.33823635120607,-13.49445492723899,-7.981233323566753,7.754464693817754,796.1984543412442,-434.0549760718815,-281.1847125695863,-46.370051762867774,26.780794218185157,-20.68857818146278,-95.74105107920697,-6.444751049907225,-33.218613731809754
10.63,-23.93981306,2.3877522,-18.14376692,7.71647097,2.24405806,-0.91033918,0.0,0.57887337,0.0,2.7e-07,0.0,9.79100922,611.77077548,53.32129199,-0.93468501,0.0,0.28177038,0.0,1.91597251,0.0,-66.58241415191841,-200.97101716962294,1102.7922695109187,44.76735744016502,108.95235796045999,-28.473093132152627,-13.387305411030148,-8.040607700312203,7.832433402705553,794.8782705515061,-443.12864047866475,-300.65741831426004,-35.57565348594969,34.68566024974204,-29.34184339230162,-95.33035171696139,-6.166958896982244,-33.151305931321495
10.64,-24.81270879,2.17100957,-16.48936865,6.99713353,2.16503137,-0.88020499,0.0,0.5749345,0.0,1.69e-06,0.0,13.62047986,603.60388193,54.58336898,-0.93289924,0.0,0.28057381,0.0,1.89251595,0.0,-11.327471383971499,-267.0220057232092,1040.8047565036381,32.556119146721386,126.6214526534871,-17.052697710717275,-13.142768470343377,-8.269535900104072,8.149811134235192,772.6514235171682,-415.81854682622094,-334.4451394380875,-15.273884495316082,52.82822008324777,-45.361614464100924,-94.43545057232045,-5.620652965660735,-32.787101977107156
10.65,-25.53887168,1.87911588,-12.96552641,5.50474855,1.79178512,-0.84964261,0.0,0.57070614,0.0,8.81e-06,0.0,16.9907771,597.90456553,56.60578505,-0.93139468,0.0,0.27956552,0.0,1.90334254,0.0,42.94965988749521,-319.5523017452762,994.1617354680516,21.29514957449868,142.5274544930046,-5.57360161546214,-12.923739795182458,-8.473206692629454,8.432977931631331,756.5608758113372,-399.67212058272065,-367.4019916342135,2.6628732150585286,68.95477888360027,-60.11585518534557,-93.64572306360883,-5.142365209865857,-32.47251839030722
10.66,-26.23212208,1.60363079,-9.05968585,3.85646311,1.30540513,-0.81899077,0.0,0.56619433,0.0,3.184e-05,0.0,20.12749762,595.03912356,58.16437749,-0.93013935,0.0,0.27871148,0.0,1.93329631,0.0,93.58574816096825,-321.7360605798355,1004.6564707918648,13.572662916486527,151.8682881869319,6.124076157507332,-12.799695369969712,-8.582827347468626,8.588754651665942,763.3198546083945,-425.0954582431843,-397.26496581566363,11.79311986153162,77.5744240588488,-70.15768411942861,-93.24762700129814,-4.917354392038083,-32.34270445694505
10.67,-26.96436085,1.39481933,-5.7957238,2.47788039,0.86537541,-0.78900422,0.0,0.56138656,0.0,8.103e-05,0.0,22.87063983,595.41733388,58.78242856,-0.92908425,0.0,0.27797887,0.0,1.97089052,0.0,144.2218364344413,-323.9198194143948,1015.1512061156781,5.850176258474374,161.2091218808592,17.821753930476802,-12.675650944756965,-8.692448002307797,8.744531371700553,770.0788334054517,-450.51879590364786,-427.1279399971137,20.92336650800471,86.19406923409734,-80.19951305351165,-92.84953093898747,-4.692343574210311,-32.21289052358287
10.68,-27.81742358,1.24860108,-3.32868259,1.43152421,0.51265287,-0.76146229,0.0,0.55620909,0.0,0.00015065,0.0,25.83446817,598.73173555,58.59489731,-0.92812891,0.0,0.27732205,0.0,1.9885924,0.0,194.85792470791432,-326.10357824895414,1025.6459414394913,-1.8723103995377777,170.54995557478645,29.519431703446276,-12.551606519544219,-8.802068657146968,8.900308091735166,776.8378122025091,-475.9421335641115,-456.99091417856374,30.0536131544778,94.81371440934586,-90.2413419875947,-92.45143487667679,-4.467332756382538,-32.08307659022069
10.69,-28.77678146,1.15548217,-1.74836442,0.75739184,0.27779069,-0.74020998,0.0,0.55046589,0.0,0.00020293,0.0,28.4650871,604.29402686,57.29421269,-0.92723183,0.0,0.27671955,0.0,1.98451842,0.0,237.11439759928447,-287.8359965915883,1037.5535558684041,-5.624868850029382,175.34571576763452,33.543589211618105,-12.489631001778308,-8.853466953171306,8.999357587433305,786.1770969176041,-466.1767271784256,-464.0947703023119,32.72510225251922,100.36853512151701,-96.65548236514468,-92.224382780083,-4.347881594546541,-32.014109365738
10.7,-29.90146047,1.09619613,-0.95619638,0.41752241,0.15691356,-0.72890569,0.0,0.54405006,0.0,0.0001906,0.0,31.24914124,611.21763409,55.52486112,-0.92621786,0.0,0.27609669,0.0,1.89821976,0.0,276.5056987255434,-235.73722658566155,1049.944264226436,-8.020022969768522,178.58741701244773,34.94400414937742,-12.448878186129228,-8.884957765263778,9.079010818020144,796.398644042678,-444.37952800830146,-463.4167916419681,33.188202430349676,104.87542605216305,-101.82923755186657,-92.05581431535272,-4.264523562537058,-31.96594694724363
10.71,-31.17372676,1.05552936,-0.62140414,0.27363098,0.10541403,-0.72307853,0.0,0.53772374,0.0,0.00013817,0.0,33.85731068,618.54877247,53.37335793,-0.9250106,0.0,0.27543672,0.0,1.73620724,0.0,315.8969998518093,-183.63845657972553,1062.3349725844698,-10.415177089508086,181.82911825726154,36.34441908713698,-12.40812537048014,-8.916448577356254,9.158664048606997,806.6201911677538,-422.5823288381735,-462.73881298162416,33.651302608180224,109.38231698280988,-107.0029927385894,-91.88724585062239,-4.181165530527561,-31.917784528749255
10.72,-32.61669617,1.03278597,-0.50189487,0.22303436,0.08845911,-0.72282972,0.0,0.5346045,0.0,0.00020663,0.0,36.23718139,625.5694111,51.28500158,-0.92347723,0.0,0.27471502,0.0,1.51768835,0.0,355.28830097806826,-131.53968657379878,1074.7256809425016,-12.810331209247225,185.07081950207476,37.74483402489629,-12.36737255483106,-8.947939389448726,9.238317279193836,816.8417382928277,-400.7851296680494,-462.06083432128037,34.11440278601068,113.88920791345592,-112.17674792531129,-91.71867738589211,-4.097807498518078,-31.869622110254888
10.73,-34.26195012,1.0336326,-0.61046468,0.27434647,0.11553597,-0.75892046,0.0,0.54235401,0.0,0.00060233,0.0,38.35309465,631.83451398,49.26090359,-0.92153024,0.0,0.27394834,0.0,1.31911309,0.0,394.6796021043272,-79.44091656787202,1087.1163893005335,-15.205485328986365,188.31252074688797,39.1452489626556,-12.32661973918198,-8.979430201541197,9.317970509780675,827.0632854179016,-378.98793049792533,-461.38285566093657,34.57750296384114,118.39609884410196,-117.3505031120332,-91.55010892116182,-4.014449466508595,-31.82145969176052
10.74,-36.14201775,1.12139184,-1.34994807,0.61422006,0.27734312,-0.80157607,0.0,0.5527136,0.0,0.00087721,0.0,40.29232265,637.17976098,47.66676586,-0.91907199,0.0,0.27316084,0.0,1.18309625,0.0,461.1573656927412,-52.44160697455205,1109.6245900094245,-13.405369934024627,191.52498586239392,39.138659283694665,-12.21011310084826,-9.061286522148913,9.455801131008478,860.822514137605,-376.8193590951928,-464.2801154571158,27.231442035815547,124.93956173421289,-122.94857210179069,-91.2990409990575,-3.945699811498587,-31.802257304429784
10.75,-38.28250776,1.36339141,-3.46102819,1.59555353,0.75713948,-0.80259969,0.0,0.55323746,0.0,0.00074615,0.0,42.53217641,641.24327266,46.29960273,-0.91608333,0.0,0.27240115,0.0,1.18020171,0.0,578.652653157397,-72.71729029217691,1151.1891517436375,-3.703437794533592,194.68238454288402,36.48196748350616,-11.95092365692743,-9.23800659754948,9.70320923656927,938.9151154571148,-411.6214326107441,-473.9113595664466,5.176776625824996,135.3189208294061,-129.34583883129116,-90.89258482563619,-3.904465127238455,-31.837601319509897
10.76,-40.63686662,1.7793669,-7.18347744,3.36202852,1.66115949,-0.78499067,0.0,0.5491696,0.0,0.00051027,0.0,44.74945275,643.77583518,45.17028438,-0.91256424,0.0,0.27169152,0.0,1.31442861,0.0,630.6126909815534,-101.95967106729294,1149.728307746766,0.37918455104418186,193.62052453557442,35.840227984844695,-11.85489334924027,-9.345108748377621,9.86319532755614,967.0998286508383,-429.66860403529205,-471.2437255004789,-2.980447579217827,139.43747184603484,-131.76617945121072,-90.73382893926085,-3.9146821453386984,-31.87127771149888
10.77,-43.17169218,2.23869356,-11.26616361,5.36910219,2.74502645,-0.76265229,0.0,0.54377235,0.0,0.00030558,0.0,46.89007823,644.57988951,43.98029674,-0.90853982,0.0,0.27104733,0.0,1.57905553,0.0,647.1602741324372,-136.04727283453482,1125.018368970989,1.4253714750186066,190.2787570302977,36.287282798222236,-11.847027282142717,-9.414592341072664,9.975942289287719,968.3164470285931,-438.66214075015995,-461.9303020569772,-3.628087103582947,140.17294911965595,-132.03755876607624,-90.70891972678527,-3.952701469643533,-31.904052991072014
10.78,-45.89681157,2.58216754,-14.39689729,7.00526025,3.67239998,-0.73927312,0.0,0.53791908,0.0,0.00016581,0.0,48.22269976,644.78518166,43.00853812,-0.90397044,0.0,0.27049962,0.0,1.88254532,0.0,663.7078572833209,-170.13487460177672,1100.3084301952122,2.471558398993032,186.936989525021,36.73433761159978,-11.839161215045165,-9.484075933767707,10.088689251019298,969.5330654063478,-447.6556774650278,-452.6168786134756,-4.2757266279480675,140.90842639327707,-132.3089380809418,-90.68401051430969,-3.9907207939483684,-31.936828270645147
10.79,-49.12251769,2.86232058,-16.82633269,8.38001475,4.45674474,-0.71586618,0.0,0.53187501,0.0,8.286e-05,0.0,49.5198244,646.37443979,42.26832887,-0.89861083,0.0,0.27011369,0.0,2.22312329,0.0,680.2554404342046,-204.22247636901858,1075.5984914194353,3.5177453229674565,183.5952220197443,37.18139242497732,-11.831295147947612,-9.55355952646275,10.20143621275088,970.7496837841024,-456.6492141798957,-443.3034551699739,-4.9233661523131875,141.64390366689818,-132.58031739580736,-90.65910130183411,-4.028740118253204,-31.96960355021828
10.8,-53.0886343,3.07975844,-18.71508585,9.55452613,5.08681378,-0.69280368,0.0,0.52578163,0.0,3.883e-05,0.0,49.9340346,652.00461178,41.80072774,-0.89228283,0.0,0.26999765,0.0,2.46225152,0.0,696.8030235850912,-238.31007813626655,1050.888552643654,4.563932246942067,180.25345451446702,37.628447238354944,-11.82342908085006,-9.623043119157806,10.314183174482478,971.9663021618575,-465.64275089476513,-433.99003172647065,-5.571005676678422,142.3793809405194,-132.85169671067294,-90.63419208935852,-4.066759442558045,-32.00237882979142
10.81,-57.94554965,3.19787034,-19.6461445,10.29847377,5.41830159,-0.67030431,0.0,0.51975975,0.0,1.678e-05,0.0,50.2987706,661.94126978,40.44501924,-0.88505133,0.0,0.27017878,0.0,2.59422782,0.0,713.3506067359749,-272.3976799035084,1026.1786138678772,5.610119170916493,176.9116870091903,38.075502051732485,-11.815563013752508,-9.69252671185285,10.426930136214057,973.1829205396122,-474.63628760963303,-424.67660828296897,-6.218645201043543,143.11485821414053,-133.1230760255385,-90.60928287688294,-4.1047787668628795,-32.035154109364555
10.82,-63.42057551,3.21775874,-19.55428297,10.53455214,5.41483778,-0.64852944,0.0,0.51391455,0.0,6.02e-06,0.0,50.69966407,675.45985854,41.21025196,-0.87721194,0.0,0.2706666,0.0,2.54871675,0.0,729.8981898868586,-306.4852816707503,1001.4686750921002,6.656306094890917,173.5699195039136,38.522556865110026,-11.807696946654955,-9.762010304547893,10.539677097945638,974.399538917367,-483.6298243245009,-415.3631848394673,-6.866284725408663,143.85033548776167,-133.39445534040402,-90.58437366440737,-4.142798091167715,-32.067929388937685
10.83,-69.29236403,3.15777675,-18.80083263,10.41270208,5.15624907,-0.62758996,0.0,0.50834029,0.0,5.6e-07,0.0,50.74439751,691.00970444,41.87144437,-0.86911107,0.0,0.27141397,0.0,2.24681313,0.0,748.0029882701198,-339.535165698669,981.0799840564678,7.168025281860964,169.48490490832864,39.427412595374186,-11.866843184147278,-9.89194624757971,10.690889420339177,974.8784751167327,-492.0774205671352,-407.02102266256327,-6.057852180851784,144.47891697984326,-133.44943172759466,-90.5859537638081,-4.21893064571215,-32.132809475002695
10.84,-75.3071314,3.07866334,-17.81749267,10.14602339,4.7742387,-0.60756368,0.0,0.50312242,0.0,-2.48e-06,0.0,51.36803307,707.46322749,44.32254739,-0.86098521,0.0,0.27241278,0.0,1.64321477,0.0,823.3325708320908,-303.2184252907893,1122.5613420817197,-14.081789442290313,136.67569937369527,58.35436325678491,-14.800861914703194,-12.12121383835376,12.337819862809422,944.7729615269911,-473.50518043543184,-441.04665374291613,51.90893528183705,141.2063972561884,-124.68221890844028,-91.71337608112137,-5.912558902475365,-33.27605726215333
10.85,-81.10701399,2.9974821,-16.93891359,9.91674567,4.36169704,-0.58850559,0.0,0.49833202,0.0,-4.38e-06,0.0,52.9371827,722.80491089,49.23671418,-0.85306809,0.0,0.27364991,0.0,0.73714016,0.0,817.1440829108265,-134.65793220002908,1056.1829744507443,-20.021743712098292,134.3444537230342,60.47684064022257,-16.68971766577184,-10.456038373595876,12.462086688537621,932.5202525101905,-441.9513480465272,-464.105605925041,55.45799582463446,143.69173377075242,-122.04776220300243,-92.36453424793714,-6.906693508300969,-32.132802465453885
10.86,-86.53465726,2.90798717,-16.33189273,9.83225276,3.94632447,-0.57045652,0.0,0.49403845,0.0,-5.74e-06,0.0,53.1689171,736.20177052,50.91617475,-0.84557309,0.0,0.27502704,0.0,-0.39643726,0.0,814.017622523857,11.740348022255162,993.7635519562023,-25.400659290521137,132.13486635489156,61.77994347489989,-18.355851995488113,-9.005163175037707,12.567664981052687,920.9718444165627,-412.5140302650102,-483.15279457054925,57.996941307681915,145.847998555188,-119.57386563248558,-92.95168231879649,-7.796685930826441,-31.169688098044418
10.87,-91.30297484,2.82056897,-16.12576469,10.00687622,3.62240293,-0.55347332,0.0,0.49027898,0.0,-6.81e-06,0.0,52.85189491,745.66602053,49.52678153,-0.83862383,0.0,0.27650203,0.0,-1.58116354,0.0,831.0968210334189,11.894968252157696,957.4683540549827,-27.0774016197101,130.72807573856522,57.67617048781459,-18.55229573020035,-8.968409185962514,12.549921675981905,914.0709661229619,-397.04313562222137,-475.7272213984267,53.870355499791316,145.83279000798447,-118.15947074255747,-93.11644158016804,-7.999466560206814,-31.39528154823008
10.88,-95.17830571,2.78176428,-16.40810723,10.53709901,3.45162683,-0.53764046,0.0,0.48702024,0.0,-7.59e-06,0.0,53.56682296,751.29939196,50.51612892,-0.8322837,0.0,0.27809746,0.0,-2.71755311,0.0,848.1760195429839,12.049588482060258,921.1731561537567,-28.754143948899355,129.32128512223863,53.572397500728556,-18.74873946491262,-8.931655196887316,12.532178370911119,907.1700878293598,-381.57224097942975,-468.30164822630286,49.74376969189999,145.81758146078096,-116.74507585262911,-93.28120084153963,-8.202247189587224,-31.620874998415786
10.89,-98.03679588,2.78252998,-17.29492352,11.54497679,3.41538457,-0.52304608,0.0,0.48420635,0.0,-8.29e-06,0.0,55.14010454,752.73084225,51.40902743,-0.82671215,0.0,0.27981076,0.0,-3.90196255,0.0,865.2552180525458,12.204208711962792,884.8779582525372,-30.430886278088316,127.91449450591229,49.46862451364326,-18.945183199624857,-8.894901207812124,12.514435065840335,900.2692095357589,-366.1013463366409,-460.8760750541803,45.6171838840094,145.80237291357741,-115.33068096270101,-93.44596010291117,-8.405027818967596,-31.846468448601453
10.9,-100.30347046,2.86106205,-18.94559134,13.22126491,3.55278719,-0.50977645,0.0,0.48178843,0.0,-8.79e-06,0.0,56.82684195,752.52914285,51.22775835,-0.82171045,0.0,0.2815604,0.0,-5.08406258,0.0,882.3344165621078,12.358828941865328,848.5827603513177,-32.10762860727728,126.50770388958595,45.364851526557956,-19.141626934337094,-8.858147218736931,12.496691760769552,893.3683312421581,-350.6304516938521,-453.4505018820578,41.49059807611881,145.7871643663739,-113.9162860727729,-93.61071936428273,-8.607808448347969,-32.07206189878712
10.91,-102.206344,3.04447814,-21.57506428,15.85038189,3.92687865,-0.49791964,0.0,0.47970929,0.0,-8.97e-06,0.0,58.28386635,750.35004618,49.55339907,-0.81688995,0.0,0.28324114,0.0,-6.19458515,0.0,899.4136150716697,12.513449171767862,812.2875624500981,-33.78437093646623,125.10091327325962,41.26107853947266,-19.33807066904933,-8.821393229661739,12.47894845569877,886.4674529485573,-335.15955705106325,-446.02492870993524,37.36401226822821,145.77195581917036,-112.5018911828448,-93.77547862565429,-8.810589077728343,-32.29765534897278
10.92,-104.11571185,3.4188768,-25.45238861,19.8754251,4.68121512,-0.4875765,0.0,0.47791144,0.0,-7.7e-06,0.0,61.28619055,748.29367686,47.92268626,-0.81219153,0.0,0.28485188,0.0,-7.18346848,0.0,916.4928135812316,12.668069401670396,775.9923645488786,-35.46111326565519,123.69412265693327,37.157305552387356,-19.53451440376157,-8.784639240586545,12.461205150627988,879.5665746549564,-319.6886624082744,-438.5993555378127,33.237426460337616,145.75674727196684,-111.0874962929167,-93.94023788702583,-9.013369707108716,-32.523248799158445
10.93,-106.4714119,4.03249884,-30.67809553,25.71248768,5.90312008,-0.47884131,0.0,0.47635248,0.0,-6.1e-07,0.0,66.15919224,749.57103522,45.53361573,-0.80770895,0.0,0.28635249,0.0,-8.0312573,0.0,933.5720120907936,12.82268963157293,739.6971666476591,-37.137855594844154,122.28733204060694,33.053532565302056,-19.730958138473806,-8.747885251511352,12.443461845557204,872.6656963613557,-304.2177677654856,-431.17378236569016,29.110840652447028,145.7415387247633,-109.67310140298859,-94.10499714839739,-9.216150336489088,-32.748842249344115
10.94,-109.41351151,4.89557661,-36.90585575,33.55442165,7.73864818,-0.47176541,0.0,0.47502256,0.0,3.347e-05,0.0,74.16292741,755.34238798,43.85245972,-0.80354726,0.0,0.28772761,0.0,-8.73492784,0.0,1258.8162106858729,-3.4159082986048848,972.7377703675827,-59.55276392573049,84.62218870784422,22.528312239485373,-20.44482834406968,-10.207512694202315,12.606697233800672,854.956714664646,-361.94319893899313,-328.8818590375145,5.120981432360337,122.87716483516634,-80.99851307313475,-95.0519469496021,-10.94214399393704,-31.547040545661314
10.95,-113.12842414,5.88764686,-43.14519245,42.90759804,10.06168723,-0.46633985,0.0,0.47393372,0.0,0.00019282,0.0,84.78671032,767.85467169,41.96433789,-0.79990096,0.0,0.28893547,0.0,-9.34642981,0.0,1188.6949526335798,66.89102614626111,777.2584221296124,-48.96920954907259,81.20422735884836,15.226303902994225,-20.90333535430083,-10.559918908677497,12.709008715422499,851.8115839333084,-350.74956498673845,-326.0133482379692,9.232387267904134,107.60243956044096,-71.06293141341509,-95.37024933687,-11.506751799924162,-30.73233800682084
10.96,-117.15950864,6.76825736,-47.79519727,52.44197072,12.83390297,-0.46247106,0.0,0.47313841,0.0,0.00106773,0.0,94.6932931,784.66671472,39.27247021,-0.79657665,0.0,0.28996973,0.0,-9.79546556,0.0,1118.5736945812744,137.19796059113958,581.7790738916074,-38.38565517241281,77.7862660098519,7.92429556650178,-21.361842364532063,-10.912325123152742,12.811320197044344,848.6664532019702,-339.5559310344817,-323.14483743842334,13.343793103448661,92.32771428571286,-61.12734975369365,-95.68855172413797,-12.071359605911383,-29.91763546798022
10.97,-121.62861617,5.87285841,-29.16361638,60.23506265,10.82930758,-0.45896103,0.0,0.47243569,0.0,0.00579886,0.0,107.72796293,803.40685087,35.94152042,-0.79329125,0.0,0.29084467,0.0,-10.00705447,0.0,1088.0583359100121,159.58082311546895,476.9330229768613,-32.12738831431903,72.8072494402383,2.792837189465562,-21.598164516472973,-11.057643672033262,12.858602729502078,844.7988319650278,-328.4648619255775,-315.6739279240847,13.549220066104848,82.55958444397017,-54.07843506770407,-95.9126580658919,-12.431521217613833,-29.546068610726095
10.98,-125.21943403,4.15364802,-4.18900659,62.82906243,4.98837112,-0.45611337,0.0,0.4718675,0.0,0.0211147,0.0,115.34154273,820.10047536,31.86733849,-0.7900255,0.0,0.29155342,0.0,-9.82727119,0.0,1093.4920175391837,138.46449941358227,454.35199088388816,-29.795050111952094,66.41131170700463,-0.3684806482569334,-21.63281639833671,-11.014995202047125,12.855937200127945,840.2754286171231,-317.46688772790213,-304.0255645591207,10.209311760315398,77.78961962895802,-49.64965801258103,-96.05126559334686,-12.606113391619585,-29.576722198528632
10.99,-127.72113013,3.64591612,1.40232979,59.03419805,4.0700776,-0.45382752,0.0,0.4716887,0.0,0.08395959,0.0,120.01061401,832.11578181,27.60930023,-0.78664512,0.0,0.29210576,0.0,-9.24398319,0.0,1098.925699168355,117.34817571169559,431.7709587909151,-27.46271190958516,60.01537397377096,-3.5297984859794287,-21.66746828020045,-10.972346732060986,12.853271670753811,835.7520252692183,-306.4689135302267,-292.3772011941567,6.8694034545259495,73.01965481394588,-45.22088095745799,-96.18987312080179,-12.78070556562534,-29.60737578633117
11.0,-127.93454929,3.25503505,1.03345503,51.2302944,3.43391173,-0.44824753,0.0,0.47113859,0.0,0.30733789,0.0,122.6183838,827.99552954,20.33288682,-0.78288793,0.0,0.29248292,0.0,-8.06114657,0.0,1104.3593807975265,96.2318520098089,409.1899266979419,-25.130373707218226,53.61943624053729,-6.691116323701924,-21.702120162064187,-10.929698262074847,12.850606141379677,831.2286219213136,-295.4709393325513,-280.72883782919274,3.5294951487364994,68.24968999893373,-40.79210390233495,-96.32848064825674,-12.955297739631092,-29.638029374133705
11.01,-125.24441714,2.6675257,-1.49624729,43.19749928,1.3545287,-0.43197471,0.0,0.46902839,0.0,0.86569395,0.0,122.67009067,805.15569336,14.93296456,-0.7786238,0.0,0.29273716,0.0,-6.34713165,0.0,1109.7930624266978,75.11552830792222,386.6088946049688,-22.798035504851292,47.223498507303624,-9.85243416142442,-21.736772043927925,-10.887049792088709,12.847940612005544,826.7052185734087,-284.47296513487595,-269.0804744642287,0.18958684294705108,63.47972518392159,-36.36332684721191,-96.4670881757117,-13.129889913636847,-29.66868296193624
11.02,-119.11902139,1.70600687,-5.34881363,37.77542837,-3.57771343,-0.39706419,0.0,0.46484308,0.0,1.63310013,0.0,117.22469558,763.13310461,14.15339434,-0.77375217,0.0,0.29294144,0.0,-4.37535793,0.0,1115.2267440558694,53.99920460603553,364.0278625119957,-20.465697302484358,40.82756077406996,-13.013751999146915,-21.77142392579166,-10.844401322102572,12.84527508263141,822.1818152255039,-273.4749909372006,-257.4321110992647,-3.150321462842399,58.70976036890944,-31.93454979208887,-96.60569570316665,-13.304482087642599,-29.699336549738778
11.03,-109.18916026,-0.19675914,-9.35373969,41.00466022,-13.20416057,-0.3359294,0.0,0.4588429,0.0,2.22865984,0.0,105.21617509,697.35827542,14.30041766,-0.76793362,0.0,0.29313262,0.0,-2.42486328,0.0,1120.6604256850408,32.882880904148834,341.4468304190226,-18.133359100117424,34.43162304083629,-16.17506983686941,-21.806075807655397,-10.801752852116433,12.842609553257278,817.6584118775992,-262.47701673952514,-245.78374773430073,-6.490229768631849,53.9397955538973,-27.50577273696583,-96.74430323062158,-13.479074261648353,-29.729990137541314
11.04,-96.76447053,-3.28153592,-16.74673778,57.80142677,-24.42062925,-0.28382982,0.0,0.45439634,0.0,2.17816178,0.0,89.17395503,616.30069795,14.71802882,-0.76126722,0.0,0.29335759,0.0,-0.83710643,0.0,1172.049859154644,-23.53436619696165,300.4192957747651,-10.872112676087177,16.862535211337658,-21.414366197169812,-21.819295774648015,-10.629859154930383,12.842957746478854,806.9477464789122,-290.70197183074436,-230.26281690143395,-14.10492957743787,36.1228169014899,-9.534788732478841,-97.24971830985686,-13.99901408450488,-29.269014084510086
11.05,-83.43489471,-9.73522869,-28.98771326,96.86759413,-24.95191887,-0.24956619,0.0,0.45447438,0.0,1.99978971,0.0,73.94809075,528.81118067,14.63986665,-0.7541266,0.0,0.29361044,0.0,0.12476582,0.0,1109.1391361875862,37.486041202468485,287.4882257566899,-11.729868714220899,-47.52854968635042,-24.100468241182135,-21.737435642546192,-10.225563363383959,12.859769307236142,867.0410746237892,-376.6233304768114,-233.8146429918063,-2.4104428752633744,-15.415491721795714,37.20621430774902,-98.50774654646416,-15.139361395811168,-27.911126726767918
11.06,-71.11410446,-18.19700941,-38.68805825,144.88293751,-7.60991772,-0.23576816,0.0,0.45548041,0.0,1.77431641,0.0,64.24074553,447.06996037,13.07683157,-0.74762781,0.0,0.29374187,0.0,0.38769696,0.0,927.4540163850338,191.3029266787612,321.29688444794465,-25.10867788708588,-86.96912830356398,-21.553592705584215,-21.703157371542183,-10.12615637747233,12.870052788537345,946.0422058067303,-369.34262571555973,-247.87216193055067,20.789090940250386,-36.71600932368734,52.23380831590687,-98.90537449011067,-15.46500497034926,-27.712312754944662
11.07,-59.48713491,-25.8040477,-42.3771135,189.58686736,-6.99660793,-0.23058046,0.0,0.45562954,0.0,1.45823564,0.0,52.24585319,379.17706888,9.460209,-0.74417147,0.0,0.29368451,0.0,0.21753434,0.0,748.6829299225335,337.57204951738913,360.193557113769,-37.5603657533674,-124.87546595680317,-19.12335627407682,-21.669386659741164,-10.029575379820804,12.880424620179197,1024.6554278665017,-359.4664623642069,-259.85398995802086,42.789857594253654,-57.25814699389716,66.7158845171625,-99.29537852226981,-15.78368004155303,-27.516791758646075
11.08,-47.53595863,-33.24420713,-39.2847361,232.08670526,-6.59084226,-0.22852957,0.0,0.45550364,0.0,1.03626557,0.0,40.08494738,314.55146378,7.54532286,-0.74421618,0.0,0.29261025,0.0,0.2220654,0.0,656.1119795409095,260.5705057063403,549.5989734377667,-22.586841391451962,-117.39736066023276,-20.14342581771473,-21.650630076901994,-10.01659005323984,12.89340994676016,1091.7938947322766,-272.8139352753731,-210.43472261900297,29.329845186052744,-55.36661775527014,65.06097678512192,-99.45985932562868,-15.896219538588046,-27.418680402256573
11.09,-34.72438732,-40.12597701,-41.1533651,275.58857982,-8.74466012,-0.22814973,0.0,0.45521235,0.0,0.47197666,0.0,27.38632258,240.15025116,6.08972995,-0.74434123,0.0,0.29086099,0.0,0.21393393,0.0,563.5410291592855,183.5689618952915,739.0043897617645,-7.613317029536528,-109.91925536366236,-21.163495361352638,-21.631873494062823,-10.003604726658876,12.906395273341124,1158.9323615980513,-186.16140818653932,-161.0154552799851,15.86983277785183,-53.475088516643126,63.40606905308136,-99.62434012898755,-16.00875903562306,-27.320569045867074
11.1,-22.09891087,-49.02430284,-30.8061831,326.94160164,-8.51950193,-0.22873215,0.0,0.45489156,0.0,-0.22280687,0.0,10.68071096,167.5098978,2.55804635,-0.74496249,0.0,0.28793082,0.0,0.17741994,0.0,470.9700787776614,106.56741808424266,928.4098060857622,7.360207332378906,-102.44115006709194,-22.183564904990547,-21.613116911223653,-9.990619400077913,12.919380599922087,1226.070828463826,-99.50888109770551,-111.59618794096721,2.409820369650916,-51.58355927801612,61.7511613210408,-99.78882093234643,-16.12129853265808,-27.222457689477572
11.11,-10.19237656,-58.63496977,-22.14670002,386.36888161,-8.74190367,-0.23021463,0.0,0.45457405,0.0,-1.02288039,0.0,-14.08457359,105.83116048,-5.36044814,-0.74711342,0.0,0.28265255,0.0,0.1084352,0.0,378.3991283960374,29.565874273193856,1117.8152224097598,22.333731694294343,-94.96304477052153,-23.203634448628456,-21.594360328384486,-9.977634073496949,12.932365926503051,1293.209295329601,-12.856354008871733,-62.17692060194935,-11.050192038550001,-49.6920300393891,60.09625358900023,-99.9533017357053,-16.233838029693096,-27.12434633308807
11.12,-0.56053774,-68.13264884,-19.5436203,454.51250421,-24.33560016,-0.23235606,0.0,0.45417575,0.0,-2.01048515,0.0,-20.68627525,49.68828057,2.10128023,-0.74975305,0.0,0.27417409,0.0,0.02762429,0.0,285.82817801441337,-47.435669537855006,1307.2206387337578,37.30725605620978,-87.48493947395113,-24.223703992266362,-21.575603745545315,-9.964648746915987,12.945351253084013,1360.3477621953757,73.7961730799621,-12.757653262931456,-24.51020444675091,-47.800500800762094,58.44134585695966,-100.11778253906417,-16.346377526728112,-27.026234976698568
11.13,2.81985143,-77.13070436,-26.57784406,524.82504566,-25.68927138,-0.23502633,0.0,0.45424277,0.0,-3.4208773,0.0,-7.73692158,9.1653799,3.7826463,-0.75619259,0.0,0.23218453,0.0,-0.00430934,0.0,193.2572276327728,-124.43721334891751,1496.626055057789,52.280780418127875,-80.0068341773794,-25.243773535904452,-21.55684716270614,-9.95166342033502,12.95833657966498,1427.4862290611625,160.44870016881129,36.66161407609519,-37.970216854954224,-45.908971562134745,56.7864381249188,-100.28226334242308,-16.45891702376315,-26.928123620309048
11.14,2.54705327,-83.90770452,-39.7035271,587.70759258,-33.42840275,-0.23785428,0.0,0.45445881,0.0,-4.87049761,0.0,-1.69869536,1.73922678,0.79450809,-0.76357285,0.0,0.13921421,0.0,0.00160081,0.0,250.23433405777513,-297.38163924249284,1580.019307668408,41.35299285935539,-80.15146538342273,-26.33382800372559,-21.533678981682705,-9.908394908413529,13.011086619062413,1293.5008599813318,32.492927662174026,31.74605712510619,-10.224942564412729,-51.93744489289201,57.13309531201528,-100.79661906240307,-16.85708786091282,-26.76414778019247
11.15,2.38689927,-88.79043995,-56.13254817,641.92072628,-38.82205259,-0.24087442,0.0,0.45536845,0.0,-6.28581633,0.0,-0.5310985,0.47635631,0.23390107,-0.76452386,0.0,0.06175265,0.0,0.00119178,0.0,533.634361158433,-493.70421465076697,1311.8539795570707,6.877124361158197,-95.94529216354343,-22.417443781942133,-21.504503407155024,-9.80236541737649,13.126565587734241,895.4802112436113,-390.73521720613314,-98.46054514480379,62.50681942078382,-60.61505451448051,58.724593696763236,-101.83351788756389,-17.69702810902896,-26.504806643952303
11.16,2.32294289,-91.93321174,-69.45625567,686.34286817,-47.34965046,-0.24423003,0.0,0.45723355,0.0,-7.58105191,0.0,-0.26150593,0.20711847,0.10484773,-0.74067846,0.0,0.1391224,0.0,0.00011869,0.0,508.19427030096665,-457.4520851788775,1208.639896649636,30.31835093696644,-97.15767149346955,-16.91204911981857,-21.48462833617263,-9.754097387847816,13.160637137989777,924.2479568427016,-362.3848480976732,-128.61386712095248,45.2268648495182,-50.2970533787626,55.67802924474746,-102.14584043157295,-17.949725440090845,-26.3827169222033
11.17,2.40457913,-93.20868283,-77.18725228,716.76425029,-53.73584714,-0.24779139,0.0,0.45967898,0.0,-8.59794996,0.0,-0.85911893,0.60882237,0.32302071,-0.70808772,0.0,0.26885446,0.0,-4.44e-05,0.0,482.75417944350033,-421.199955706988,1105.4258137422014,53.759577512774676,-98.37005082339569,-11.406654457695,-21.464753265190232,-9.705829358319141,13.194708688245312,953.0157024417917,-334.0344789892133,-158.76718909710115,27.94691027825258,-39.97905224304468,52.63146479273168,-102.45816297558203,-18.202422771152733,-26.2606272004543
11.18,2.39829467,-92.87999863,-79.5179334,732.87440726,-58.36501636,-0.25117541,0.0,0.46219079,0.0,-9.26018723,0.0,-1.11124559,0.71670371,0.40303137,-0.68978659,0.0,0.27029293,0.0,-5.68e-06,0.0,461.91603464854995,-380.35550530448234,1032.658214921889,68.32614089569321,-97.56342859845286,-7.020202405536352,-21.449187540394405,-9.665937701972037,13.22771836625313,980.2907993757557,-298.87717042105476,-176.20130854233582,11.461494396016786,-31.977954506045542,50.749012406008916,-102.73224789949082,-18.42493576304048,-26.15050096946578
11.19,2.27242115,-91.05717982,-82.34487887,736.61396661,-62.86204483,-0.25401415,0.0,0.46446923,0.0,-9.36497096,0.0,-0.89954332,0.53220113,0.31450485,-0.6695375,0.0,0.26384407,0.0,-4.1e-07,0.0,454.3337088765244,-326.2829608903407,1047.5911405015977,57.32940397559957,-90.94111039298936,-5.85684348251039,-21.446034806185665,-9.650174030928325,13.257669341236182,1003.2663499219661,-244.11260084809413,-156.9980044768856,-2.735267745950443,-30.65065340416497,52.21976291438727,-102.89619007834541,-18.560503334016406,-26.074835348455963
11.2,2.07642456,-88.89646107,-83.02640713,732.88190063,-65.18939731,-0.25607274,0.0,0.46646364,0.0,-8.951715,0.0,-0.74380349,0.40715067,0.25190321,-0.64659689,0.0,0.25615848,0.0,-1e-07,0.0,446.75138310449876,-272.210416476199,1062.5240660813063,46.33266705550592,-84.31879218752586,-4.693484559484428,-21.44288207197692,-9.634410359884614,13.287620316219236,1026.2419004681767,-189.3480312751335,-137.79470041143537,-16.932029887917672,-29.323352302284402,53.69051342276562,-103.06013225720002,-18.69607090499233,-25.999169727446144
11.21,1.82654511,-87.0327736,-81.12033492,725.94896887,-66.0360839,-0.25732689,0.0,0.46818276,0.0,-8.1267598,0.0,-0.45309586,0.23170485,0.14938506,-0.62113385,0.0,0.24786924,0.0,-8e-08,0.0,439.1690573324718,-218.13787206204773,1077.4569916610174,35.33593013541033,-77.69647398206118,-3.53012563645826,-21.439729337768178,-9.618646688840897,13.317571291202295,1049.2174510143914,-134.58346170216313,-118.59139634598174,-31.12879202988742,-27.996051200403596,55.161263931144234,-103.22407443605466,-18.83163847596828,-25.92350410643631
11.22,1.54340576,-85.86889204,-76.95355046,719.16131167,-63.96603655,-0.25784153,0.0,0.46969563,0.0,-7.06144725,0.0,-0.24883158,0.11992078,0.08014459,-0.59347383,0.0,0.23911904,0.0,-5e-08,0.0,431.58673156044625,-164.06532764790606,1092.389917240726,24.339193215316683,-71.07415577659768,-2.3667667134322983,-21.436576603559438,-9.602883017797186,13.347522266185347,1072.193001560602,-79.81889212920251,-99.38809228053151,-45.325554171854655,-26.668750098523027,56.632014439522585,-103.38801661490928,-18.967206046944202,-25.847838485426493
11.23,1.28877911,-85.14139948,-71.56090592,712.31516876,-60.84083396,-0.25778061,0.0,0.47103594,0.0,-5.77841352,0.0,-0.13929198,0.06392843,0.04413672,-0.56405369,0.0,0.23000115,0.0,-2e-08,0.0,424.0044057884207,-109.99278323376438,1107.3228428204345,13.342456295223037,-64.45183757113418,-1.2034077904063363,-21.433423869350694,-9.587119346753473,13.377473241168401,1095.1685521068125,-25.054322556241857,-80.18478821508128,-59.52231631382188,-25.341448996642455,58.10276494790094,-103.55195879376387,-19.10277361792013,-25.772172864416675
11.24,1.07322616,-84.7293285,-65.6028707,705.40006853,-56.35345561,-0.25725877,0.0,0.47225137,0.0,-4.37807847,0.0,-0.08728688,0.03849729,0.02740026,-0.53332724,0.0,0.22058403,0.0,-1e-08,0.0,416.4220800163951,-55.92023881962274,1122.255768400143,2.3457193751293914,-57.82951936567066,-0.040048867380374276,-21.43027113514195,-9.57135567570976,13.407424216151455,1118.144102653023,29.710247016718768,-60.981484149631044,-73.7190784557891,-24.01414789476189,59.57351545627929,-103.71590097261848,-19.238341188896054,-25.696507243406856
11.25,0.92197045,-84.19293665,-60.08652063,696.52641907,-51.71501501,-0.25641924,0.0,0.47335997,0.0,-2.87813268,0.0,-0.06397903,0.02735389,0.02007819,-0.50172802,0.0,0.21090527,0.0,-1e-08,0.0,450.93394297819725,-62.806127637038976,1108.7260596698725,-65.64538617706717,-70.444307529349,2.9110389266483656,-21.510806779062584,-9.51,13.640806779062585,955.81,-346.79171418483566,-31.043252714273663,-27.323472504192715,-43.9640003530761,51.352957895665924,-104.85763615500045,-20.05065407361639,-24.78603583723188
11.26,0.82951374,-83.41823501,-53.75763152,684.44953153,-46.6953981,-0.25535839,0.0,0.47437857,0.0,-1.37832191,0.0,-0.05621401,0.02345853,0.01774437,-0.46958743,0.0,0.20099707,0.0,-0.0,0.0,438.43504634124804,-117.61531938682486,1047.811592373554,-42.86314590872961,-51.372309412422226,0.40125577426660897,-21.572595109894962,-9.51,13.702595109894961,955.81,-357.20746138229333,-54.96122134933967,-24.59890134463175,-40.842218495307,48.62544443463675,-105.18717391943979,-20.28309588960485,-24.591843940330126
11.27,0.8176257,-81.90642886,-50.25600921,668.52138605,-43.64681425,-0.25420748,0.0,0.47527314,0.0,0.06947036,0.0,-0.05969425,0.02444532,0.0190564,-0.4371331,0.0,0.19086887,0.0,-0.0,0.0,425.93614970429877,-172.42451113661076,986.8971250772358,-20.080905640392047,-32.30031129549545,-2.1085273781151472,-21.634383440727337,-9.51,13.764383440727336,955.81,-367.623208579751,-78.87918998440567,-21.874330185070775,-37.7204366375379,45.89793097360757,-105.51671168387912,-20.515537705593314,-24.39765204342837
11.28,0.85609945,-79.83872982,-46.91877812,648.42595152,-40.98301709,-0.25303237,0.0,0.47607019,0.0,1.27651046,0.0,-0.07446056,0.0300143,0.02397945,-0.40444338,0.0,0.18057064,0.0,-0.0,0.0,413.4372530673495,-227.23370288639666,925.9826577809174,2.7013346279455135,-13.228313178568662,-4.618310530496904,-21.696171771559715,-9.51,13.826171771559713,955.81,-378.03895577720874,-102.79715861947167,-19.14975902550981,-34.59865477976879,43.170417512578396,-105.84624944831847,-20.747979521581776,-24.203460146526616
11.29,0.95259484,-77.09076666,-45.37652273,624.6986744,-40.18960061,-0.25190383,0.0,0.47675187,0.0,2.20048804,0.0,-0.10449006,0.04153851,0.03382379,-0.37148994,0.0,0.17012712,0.0,-0.0,0.0,411.20379408837704,-229.85029299626552,913.476584984426,8.149110930169414,-7.719051090173663,-5.382644850270752,-21.74310534682641,-9.51,13.874108539154483,953.9239984232227,-377.4065698628723,-115.86555219520967,-20.2584684579891,-33.01317798198344,41.75844932986965,-106.05643415661794,-20.86922027063704,-24.06369353650499
11.3,1.09286615,-73.99917196,-43.83329583,598.29490952,-38.32030312,-0.25086762,0.0,0.47740096,0.0,2.71974653,0.0,-0.153596,0.06027096,0.04964549,-0.33815217,0.0,0.15956366,0.0,-1e-08,0.0,411.9301456580461,-217.4183076783881,914.9279956832488,8.598880229537473,-6.120302172592375,-5.643717834386694,-21.78575588383545,-9.51,13.918051516678949,951.4942102542228,-373.5887005803055,-125.80571219934686,-22.472419060912905,-31.87066056634734,40.725789358044715,-106.23220606671579,-20.958398666201397,-23.939619247024144
11.31,1.26621631,-70.74928684,-42.17337717,570.99997904,-37.44673124,-0.24998977,0.0,0.47803038,0.0,2.80031535,0.0,-0.21540004,0.08347091,0.06892255,-0.30423681,0.0,0.14890009,0.0,-1e-08,0.0,412.65649722771514,-204.98632236051282,916.3794063820714,9.04864952890545,-4.52155325501137,-5.9047908185025895,-21.828406420844484,-9.51,13.961994494203406,949.0644220852234,-369.77083129773933,-135.74587220348226,-24.686369663836317,-30.72814315071144,39.69312938621996,-106.40797797681363,-21.047577061765736,-23.815544957543324
11.32,1.46788797,-67.60667553,-40.30047642,544.67570016,-35.91287975,-0.24937211,0.0,0.4787132,0.0,2.49267776,0.0,-0.25829596,0.09887578,0.08108191,-0.26950852,0.0,0.13815025,0.0,-7e-08,0.0,413.3828487973841,-192.5543370426376,917.8308170808939,9.49841882827343,-2.9228043374303665,-6.165863802618485,-21.871056957853515,-9.51,14.005937471727863,946.634633916224,-365.9529620151732,-145.68603220761767,-26.900320266759728,-29.58562573507554,38.6604694143952,-106.58374988691146,-21.136755457330075,-23.6914706680625
11.33,1.6656263,-64.93175349,-38.38000948,522.54253336,-34.74744319,-0.24910055,0.0,0.47946675,0.0,1.8583311,0.0,-0.23128357,0.08757741,0.07078157,-0.23384687,0.0,0.12735441,0.0,-5.7e-07,0.0,414.10920036705306,-180.12235172476235,919.2822277797164,9.948188127641409,-1.324055419849362,-6.42693678673438,-21.913707494862546,-9.51,14.04988044925232,944.2048457472246,-362.1350927326071,-155.62619221175308,-29.11427086968314,-28.443108319439638,37.627809442570445,-106.75952179700928,-21.225933852894418,-23.56739637858168
11.34,1.85699807,-62.94103665,-35.90551722,506.27720198,-35.34371973,-0.24923334,0.0,0.48029723,0.0,0.99140438,0.0,-0.13364555,0.05015557,0.03963834,-0.19837255,0.0,0.11706828,0.0,-3.29e-06,0.0,414.835551936722,-167.6903664068871,920.733638478539,10.397957427009386,0.27469349773164176,-6.688009770850276,-21.95635803187158,-9.51,14.09382342677678,941.7750575782252,-358.317223450041,-165.5663522158885,-31.32822147260655,-27.30059090380374,36.59514947074569,-106.93529370710712,-21.315112248458757,-23.443322089100857
11.35,2.00761359,-61.87460708,-33.12396561,497.99733235,-37.84231614,-0.24980357,0.0,0.48120974,0.0,-0.01938563,0.0,-0.0464315,0.01730507,0.01322756,-0.1758879,0.0,0.11266509,0.0,-8.37e-06,0.0,415.56190350639105,-155.25838108901186,922.1850491773615,10.847726726377363,1.8734424153126454,-6.949082754966172,-21.999008568880612,-9.51,14.137766404301237,939.3452694092257,-354.4993541674749,-175.5065122200239,-33.54217207552996,-26.15807348816784,35.56248949892093,-107.11106561720494,-21.404290644023096,-23.319247799620037
11.36,2.1020835,-61.97419139,-29.4062433,499.16830968,-41.05284646,-0.25081226,0.0,0.48221763,0.0,-1.0533825,0.0,-0.01880394,0.00696513,0.00503929,-0.19665209,0.0,0.12603464,0.0,-1.68e-06,0.0,401.1796790540965,-140.90503378379057,927.9168243243121,5.188733108125257,4.375929054051334,-5.4324155405455175,-22.381689189188226,-9.48371621621629,14.580827702701573,963.7997466215462,-311.84457770281244,-155.5433108108939,-26.056706081108146,-28.1483445945859,29.68121621622998,-108.32478040540246,-21.963108108106777,-22.398344594596853
11.37,2.11489762,-63.24192708,-24.31598777,509.81634408,-45.418053,-0.25225956,0.0,0.48331762,0.0,-2.12156729,0.0,-0.02599002,0.00963998,0.00649599,-0.24773237,0.0,0.1249616,0.0,-2.197e-05,0.0,388.68442332250936,-165.39451563468893,922.7590593643968,0.6587882657716724,3.2213697230636407,-4.989000985149724,-22.896015616448313,-9.45570146312986,15.047373663662539,950.0301145692738,-319.0783029882845,-108.54738278542338,-14.80583792461851,-30.063843908490497,27.698366840588104,-109.51343415915635,-22.449500492574863,-21.536745357025627
11.38,2.06938729,-65.61241701,-18.93385401,530.63755331,-50.18409297,-0.25414292,0.0,0.48448949,0.0,-3.05437605,0.0,-0.35371551,0.13174641,0.08396798,-0.30445894,0.0,0.12546455,0.0,-9.41e-06,0.0,383.96300178786424,-191.67247382055777,915.1843521728023,-0.7204214251833996,1.5283715839018592,-5.4779271718904115,-23.23899368774402,-9.441106651585361,15.310080271463505,921.705234064289,-347.22804575473526,-76.3001466778548,-8.442500091217331,-30.37398365381108,28.278510599481905,-110.17020067865876,-22.693963585945205,-21.084306199146184
11.39,2.24432206,-68.87837606,-12.67512781,560.08992767,-55.52129451,-0.2564177,0.0,0.48569849,0.0,-3.83265785,0.0,-3.49577785,1.31560959,0.8188429,-0.27755332,0.0,0.11879988,0.0,-1.02e-06,0.0,381.86443728719985,-210.34564338517217,909.1604803533634,-1.6424394957209862,0.30268059261986024,-5.903883316462687,-23.56194748627343,-9.432565872212509,15.5264948927947,899.7291969571485,-366.0192478758319,-56.1450756111777,-4.076152572007008,-30.527158982853283,28.784879911659154,-110.75357412349315,-22.904192509432225,-20.698579491426642
11.4,3.03821471,-72.80042964,-4.45128135,595.9108,-61.21492393,-0.25898686,0.0,0.48689135,0.0,-4.36708374,0.0,-12.89843041,4.93707614,2.96677812,-0.24724855,0.0,0.11160542,0.0,-3e-08,0.0,388.11731296585975,-204.80440231894744,908.0746240912855,-1.1087135363946055,0.5649424864267887,-6.12933652341952,-23.821141989509517,-9.443301739210453,15.595511180638628,897.9685147694856,-355.01191681236804,-74.49267231066474,-6.0684227477684125,-30.180543848348222,29.056343977178603,-111.10325664856906,-23.005416398269986,-20.52527192417411
11.41,3.68490417,-76.60422797,2.98878174,633.80925201,-67.19375746,-0.26179378,0.0,0.48802439,0.0,-4.67341882,0.0,-21.25629999,8.34358915,4.78783539,-0.21610024,0.0,0.10428504,0.0,1.05e-06,0.0,394.37018864451966,-199.26316125272268,906.9887678292077,-0.5749875770682249,0.8272043802337171,-6.354789730376353,-24.080336492745605,-9.454037606208397,15.664527468482557,896.2078325818227,-344.00458574890416,-92.8402690101518,-8.060692923529816,-29.833928713843157,29.327808042698056,-111.45293917364496,-23.106640287107748,-20.351964356921577
11.42,3.93432985,-79.73796413,8.28327201,670.34842932,-71.11265818,-0.26487732,0.0,0.48904706,0.0,-4.64561893,0.0,-25.63524326,10.40313587,5.61451067,-0.18480396,0.0,0.09705754,0.0,1.18e-06,0.0,400.6230643231796,-193.72192018649793,905.90291156713,-0.041261617741844114,1.0894662740406456,-6.580242937333186,-24.33953099598169,-9.464773473206343,15.733543756326487,894.4471503941598,-332.9972546854403,-111.18786570963884,-10.05296309929122,-29.487313579338096,29.59927210821751,-111.80262169872087,-23.207864175945513,-20.178656789669045
11.43,3.81464507,-81.83478083,13.45382838,702.29463917,-73.66491295,-0.26843608,0.0,0.4899148,0.0,-4.39271461,0.0,-25.81451991,10.88982294,5.4105366,-0.15401905,0.0,0.09015373,0.0,7.3e-07,0.0,406.8759400018395,-188.18067912027317,904.8170553050521,0.49246434158453667,1.351728167847574,-6.80569614429002,-24.598725499217778,-9.475509340204287,15.802560044170415,892.686468206497,-321.98992362197635,-129.5354624091259,-12.045233275052624,-29.14069844483303,29.87073617373696,-112.15230422379676,-23.309088064783275,-20.005349222416516
11.44,3.30842392,-82.76794045,18.12937458,728.96245278,-75.18883098,-0.27248648,0.0,0.49059608,0.0,-3.97469047,0.0,-21.51410107,9.45837414,4.24066366,-0.12424541,0.0,0.08378181,0.0,3.4e-07,0.0,413.12881568049943,-182.6394380540484,903.7311990429744,1.0261903009109172,1.6139900616545027,-7.031149351246853,-24.857920002453866,-9.48624520720223,15.871576332014344,890.9257860188341,-310.98259255851247,-147.88305910861294,-14.037503450814029,-28.79408331032797,30.142200239256415,-112.50198674887267,-23.410311953621036,-19.832041655163984
11.45,2.65191948,-82.83015782,23.53893366,749.22241865,-75.27692466,-0.27662488,0.0,0.4910679,0.0,-3.36610212,0.0,-15.68154206,7.17313327,2.85144026,-0.09573327,0.0,0.07807396,0.0,1.3e-07,0.0,419.3816913591594,-177.09819698782368,902.6453427808966,1.5599162602372978,1.876251955461431,-7.256602558203687,-25.117114505689955,-9.496981074200175,15.940592619858272,889.1651038311712,-299.9752614950486,-166.23065580809998,-16.029773626575434,-28.447468175822905,30.413664304775864,-112.85166927394857,-23.511535842458798,-19.65873408791145
11.46,2.08400107,-82.64968292,27.03066088,765.67885547,-71.92079012,-0.28019277,0.0,0.49128368,0.0,-2.58446815,0.0,-10.73878159,5.10045492,1.75800851,-0.0685445,0.0,0.07310393,0.0,5e-08,0.0,398.1878071300283,-178.24080020518142,910.672844319058,0.9172736599126234,1.1664914080531745,-5.854378045652409,-27.47600153885662,-9.555306488843305,16.116701718389365,929.1820030777212,-367.7644832008363,-110.62660425748854,-7.989840984866021,-31.33655039753849,29.199515260322876,-115.47566299051094,-24.323508591946826,-18.854144652474826
11.47,1.63991999,-82.83126756,30.6911127,777.78610864,-63.92972739,-0.28262251,0.0,0.49120668,0.0,-1.57715471,0.0,-7.44171877,3.66477712,1.04771152,-0.0427076,0.0,0.06894816,0.0,2e-08,0.0,395.96061207760266,-171.57938154658788,913.6749722196924,1.1293879223973469,1.8298296748338854,-6.251714181619535,-28.821762455597227,-9.377542581291529,16.246886783860113,929.7662519355129,-363.4797085344733,-120.85059021769067,-9.848614627926437,-31.709737681027434,29.28101011021043,-116.42838236633584,-24.769169323253543,-18.801403588669277
11.48,1.29504069,-84.43654945,34.33047749,790.53550014,-55.7174877,-0.28311974,0.0,0.49069833,0.0,-0.52678672,0.0,-5.34710867,2.73247956,0.59359573,-0.01829892,0.0,0.0657213,0.0,1e-08,0.0,395.66307435406986,-164.24112973251886,916.119032091569,1.4269256459301416,2.6070710750828185,-6.807320338828734,-30.048346540365074,-9.183232231229296,16.371366851868732,926.7271166165707,-352.51028205361627,-137.230345508093,-12.605392719434372,-31.837253848255774,29.484428757931834,-117.21473206424395,-25.17297051947662,-18.81354798554817
11.49,0.98598275,-87.94940466,38.3978319,804.28466656,-48.37968937,-0.28119442,0.0,0.48970177,0.0,0.47889148,0.0,-3.9302111,2.08950579,0.28297175,0.00454053,0.0,0.06356156,0.0,0.0,0.0,395.36553663053706,-156.90287791844983,918.5630919634455,1.7244633694629363,3.3843124753317517,-7.3629264960379315,-31.27493062513292,-8.988921881167062,16.49584691987735,923.6879812976285,-341.54085557275926,-153.6101007984953,-15.362170810942306,-31.964770015484113,29.687847405653233,-118.00108176215204,-25.5767717156997,-18.825692382427057
11.5,0.69198878,-93.88450514,43.12807306,821.20154503,-43.93743617,-0.27655163,0.0,0.48814742,0.0,1.33417906,0.0,-3.00790359,1.67169688,0.06251872,0.02563045,0.0,0.06260975,0.0,0.0,0.0,394.2478505023107,-160.37174550775367,916.4787609071927,1.6054617155296864,3.449279456112475,-7.798356025053102,-32.37555450473765,-8.886607126924927,16.68508627611928,921.5690635427633,-338.7174204600204,-155.00638336218094,-18.130548883853013,-32.28405185489197,30.22289430952342,-118.60356542531363,-25.867389232883077,-18.76897164575935
11.51,0.46216567,-102.41471775,51.26592885,842.01011096,-44.24087523,-0.26945684,0.0,0.48603201,0.0,1.98384791,0.0,-2.5021428,1.46533653,-0.11907251,0.04475934,0.0,0.06299577,0.0,0.0,0.0,392.679356007209,-169.78092807051993,911.9053236023624,1.2575021858996043,3.122732820613475,-8.167728448814266,-33.406942238718095,-8.83485929944148,16.90992166449564,919.9559588515551,-340.37156653164647,-148.16674809514453,-20.905303081672386,-32.7087409218251,30.940226262914663,-119.1049840295498,-26.09579343694795,-18.674398030013737
11.52,0.26211679,-113.01398782,58.20681892,870.09337999,-45.78762749,-0.26085281,0.0,0.48346133,0.0,2.47934874,0.0,-2.33941347,1.45868711,-0.32167494,0.06175044,0.0,0.06478506,0.0,0.0,0.0,391.11086151210725,-179.1901106332862,907.3318862975322,0.9095426562695222,2.796186185114475,-8.537100872575431,-34.43832997269855,-8.783111471958032,17.134757052872,918.342854160347,-342.02571260327255,-141.32711282810808,-23.680057279491756,-33.13342998875822,31.657558216305908,-119.60640263378598,-26.324197641012827,-18.579824414268128
11.53,0.12812603,-124.05652423,64.17008697,901.27069701,-46.66597819,-0.2522946,0.0,0.48066008,0.0,2.74497602,0.0,-2.50907615,1.69624143,-0.66009802,0.07645042,0.0,0.06801499,0.0,0.0,0.0,389.5423670170055,-188.59929319605249,902.7584489927019,0.5615831266394402,2.469639549615475,-8.906473296336594,-35.46971770667899,-8.731363644474584,17.359592441248363,916.7297494691388,-343.67985867489864,-134.48747756107167,-26.454811477311132,-33.55811905569135,32.37489016969715,-120.10782123802214,-26.5526018450777,-18.485250798522515
11.54,0.07565339,-133.856661,70.63110265,931.12591964,-47.44589335,-0.24508181,0.0,0.4778337,0.0,2.80069786,0.0,-3.05407164,2.30996496,-1.36619479,0.08873855,0.0,0.07267272,0.0,0.0,0.0,387.97387252190373,-198.00847575881875,898.1850116878717,0.21362359700935807,2.1430929141164747,-9.27584572009776,-36.501105440659444,-8.679615816991136,17.584427829624723,915.1166447779306,-345.3340047465247,-127.64784229403523,-29.2295656751305,-33.982808122624476,33.092222123088405,-120.60923984225832,-26.781006049142576,-18.3906771827769
11.55,0.18047489,-140.58470296,77.42884143,949.67817437,-53.32115341,-0.23933416,0.0,0.47507383,0.0,2.65211455,0.0,-3.97438728,3.56182465,-2.92449257,0.09858351,0.0,0.07865355,0.0,-0.0,0.0,386.15217750257943,-206.55645510835828,894.6237874097021,-0.12983230134160706,1.7197187822495423,-9.701483488132226,-37.70259029927799,-8.60688080495352,17.82869969040253,914.3552554179581,-347.60772961816434,-119.88328431372331,-31.531785345716585,-34.72057791537728,33.833413312693594,-121.19124613003115,-27.048630030959842,-18.283789989680052
11.56,0.32104389,-142.70082813,82.67486359,940.91741575,-58.1026244,-0.2339927,0.0,0.4724753,0.0,2.30617207,0.0,-4.9191808,5.71677214,-5.93782937,0.10615498,0.0,0.08570785,0.0,-1e-08,0.0,378.4380392156859,-195.0626470588229,914.6186274509814,-0.368480392156876,-0.9570098039217179,-11.436519607843234,-42.86254901960813,-8.045735294117616,18.525294117647096,933.4148529411775,-364.3001960784323,-90.59406862744936,-22.8372549019603,-42.74431372549064,35.129852941176544,-123.64867647058838,-28.22897058823536,-17.89034313725488
11.57,0.52896771,-140.63877619,86.09377003,909.32186893,-58.81363451,-0.22907187,0.0,0.47020797,0.0,1.86393816,0.0,-5.20256006,9.07640744,-10.98457547,0.11175088,0.0,0.09361954,0.0,-4e-08,0.0,375.9106865288668,-192.48992929436938,924.8685650748396,-0.5487700641482566,-3.232335281539602,-13.411444048467622,-46.5744476122595,-7.40178246614396,18.82962565930149,947.0142163934428,-377.5141987170352,-78.3106600142553,-19.315338845331475,-47.896256878118365,36.48124789736283,-125.41633699215969,-29.21060612972204,-17.734777191732007
11.58,0.72807132,-133.68453626,84.49721278,850.0350168,-57.16598122,-0.2241317,0.0,0.46819311,0.0,1.44582077,0.0,-4.77996051,16.03491065,-21.0910584,0.11567078,0.0,0.10226979,0.0,-4.5e-07,0.0,378.7645710620099,-199.1727518175337,925.0082657163222,-0.6685134711332832,-5.0912091233071575,-15.635250178189546,-48.783998574483206,-6.6719178902352265,18.726988453314327,954.9486426229506,-387.1193305773341,-83.67060299358506,-21.159957519600816,-50.06874440484671,37.88965844618671,-126.46836835352813,-29.98608724162507,-17.826010263720597
11.59,0.88734502,-123.37113034,78.08750996,771.46918687,-52.39871445,-0.21868343,0.0,0.46637177,0.0,1.17832413,0.0,-1.73513162,29.97705735,-40.73406524,0.11810256,0.0,0.11152803,0.0,-5.55e-06,0.0,381.618455595153,-205.85557434069807,925.1479663578046,-0.7882568781183098,-6.950082965074714,-17.859056307911466,-50.99354953670691,-5.942053314326492,18.624351247327162,962.8830688524586,-396.724462437633,-89.03054597291482,-23.004576193870154,-52.24123193157505,39.298068995010595,-127.52039971489658,-30.7615683535281,-17.91724333570919
11.6,0.76754349,-111.05953572,69.96989057,681.87196262,-44.84511164,-0.21279213,0.0,0.46487351,0.0,1.08153692,0.0,6.36896752,47.09309588,-63.36589225,0.11919444,0.0,0.12108402,0.0,-6.701e-05,0.0,384.47234012829614,-212.5383968638624,925.2876669992872,-0.9080002851033364,-8.808956806842268,-20.08286243763339,-53.20310049893062,-5.212188738417759,18.521714041339997,970.8174950819664,-406.3295942979319,-94.39048895224458,-24.84919486813949,-54.41371945830339,40.706479543834476,-128.57243107626502,-31.53704946543113,-18.00847640769778
11.61,0.58355358,-98.35846851,60.04769394,593.752165,-37.23146932,-0.20674643,0.0,0.46372667,0.0,1.04564861,0.0,17.40305293,61.36119299,-78.91508904,0.11926436,0.0,0.13038352,0.0,-0.00064612,0.0,387.0551932836072,-203.7784980075622,929.2970789482641,-0.6956639760226426,-13.016203467183821,-21.539976158849992,-54.02701508804186,-5.119623991008491,18.446321991757785,972.9928902285342,-399.94940226831596,-111.56827441163227,-25.71725009366155,-55.16501157998697,41.20053455263779,-129.44064609516013,-31.95020554477022,-17.77724447396209
11.62,0.44769555,-86.47123053,53.12465935,512.51337305,-32.51227133,-0.2007826,0.0,0.46286863,0.0,0.95314214,0.0,27.25829736,70.57256024,-84.26325736,0.11913046,0.0,0.13854691,0.0,-0.00420631,0.0,389.63344334321005,-194.75632573822543,933.3722126289971,-0.47768774905489914,-17.26333401450845,-22.984068662511294,-54.82739654643904,-5.037882905895588,18.37139266373762,975.0704761418206,-393.29772146725344,-128.94676969449029,-26.568719730254298,-55.892166649637176,41.67906048840292,-130.30573924593835,-32.35720803106155,-17.540535914989306
11.63,0.32605913,-75.75309707,46.97665994,441.652347,-28.58797369,-0.19515136,0.0,0.46222208,0.0,0.74505969,0.0,34.62490527,77.04995621,-83.56257383,0.12019109,0.0,0.14437529,0.0,-0.01641961,0.0,392.21169340281335,-185.73415346888706,937.4473463097307,-0.2597115220871169,-21.510464561833835,-24.428161166172853,-55.627778004836365,-4.956141820782669,18.296463335717444,977.1480620551072,-386.64604066618966,-146.32526497735137,-27.420189366847197,-56.61932171928751,42.15758642416812,-131.17083239671675,-32.76421051735296,-17.30382735601648
11.64,0.15469407,-65.80368409,37.36038344,381.59592832,-24.78520727,-0.19023156,0.0,0.46182011,0.0,0.48876599,0.0,39.86489189,83.38016828,-80.74837593,0.12263376,0.0,0.14761354,0.0,-0.03973656,0.0,394.78994346241615,-176.7119811995503,941.5224799904636,-0.04173529511937335,-25.757595109158462,-25.87225366983415,-56.42815946323355,-4.874400735669765,18.221534007697283,979.2256479683934,-379.99435986512714,-163.70376026020935,-28.271659003439947,-57.346476788937714,42.63611235993325,-132.03592554749497,-33.1712130036443,-17.067118797043694
11.65,-0.52082567,-57.08965346,29.37904724,331.20831004,-21.58793965,-0.186268,0.0,0.46185567,0.0,0.26562611,0.0,46.29437783,95.84058585,-81.42721774,0.12936733,0.0,0.14672572,0.0,-0.10755857,0.0,397.368193522019,-167.68980893021353,945.5976136711965,0.1762409318483703,-30.00472565648309,-27.316346173495454,-57.22854092163073,-4.792659650556861,18.14660467967712,981.3032338816797,-373.34267906406455,-181.08225554306733,-29.123128640032697,-58.07363185858792,43.11463829569838,-132.90101869827322,-33.57821548993563,-16.83041023807091
11.66,-1.38693993,-49.41674419,14.03275592,295.99923481,-14.69056875,-0.18396663,0.0,0.46239007,0.0,0.11787448,0.0,40.56518721,125.62744111,-59.76145075,0.14416988,0.0,0.14104074,0.0,-0.41558071,0.0,399.9246313307861,-154.77477196975875,949.3744435411755,0.20471831558410603,-37.332201447036674,-27.206395415006973,-57.93277457117308,-4.637810747093735,17.940910495081706,989.7432038045685,-368.35666124705307,-197.56684903666365,-29.224292333956615,-61.082715226404254,43.77663279408177,-133.83166897000243,-33.804523209495166,-16.371625884074476
11.67,-0.77909641,-42.98393887,7.57734852,262.44856025,-14.0393309,-0.18164591,0.0,0.4627315,0.0,0.02957717,0.0,-0.90050891,182.70831814,7.83901182,0.16488831,0.0,0.13382058,0.0,-0.36772744,0.0,402.3065514998782,-110.71331355174135,950.7645744248435,-1.2829656125519064,-69.30521177140244,-14.662699780504965,-57.86773920819445,-3.8980334932118934,16.688979757743205,1049.0879725225625,-376.6974465490615,-206.8994236240961,-23.322333143646535,-82.34927892041412,45.90654093163169,-135.28683521664914,-32.58511015364598,-14.136035281684293
11.68,-7.27725328,-37.5223013,6.41536289,231.35018301,-13.05678057,-0.17970214,0.0,0.4631435,0.0,0.000676,0.0,-32.34348122,296.84112625,6.68458055,0.1887994,0.0,0.12406497,0.0,0.55718694,0.0,407.4527159291042,-121.61632967362452,958.1299887585718,0.8343568029378545,-78.61205468330421,-13.07646507038383,-57.4946635690286,-3.635034661070926,16.46517205630706,1096.5020690473532,-371.2151820486876,-201.42734177689485,-18.9303221293762,-86.84533393287626,46.227125067136306,-135.40167822035698,-32.251829729830995,-13.772063426637185
11.69,-22.06297943,-32.01383888,1.94580661,204.41978258,-11.40772156,-0.17894187,0.0,0.46356681,0.0,-0.0003456,0.0,-72.31426839,490.34415395,30.10664643,0.2114893,0.0,0.11848543,0.0,2.82293253,0.0,412.9722572788249,-139.94360512609148,966.3025072132499,3.4386210514482904,-84.85729268932444,-12.970296024281485,-57.07997976542886,-3.4364360924794832,16.380236819425186,1142.3046445835055,-363.865785963203,-193.95553902649223,-14.742265522539032,-89.07613294862668,46.30331697080975,-135.33547869749316,-32.0382425900251,-13.660898190130025
11.7,-38.56760687,-25.82035463,-0.73550101,171.89691293,-9.21700023,-0.17838639,0.0,0.46396063,0.0,-0.00111155,0.0,-97.96820485,694.46621546,52.79109204,0.22224063,0.0,0.11812297,0.0,5.53736822,0.0,418.4917986285456,-158.27088057855843,974.475025667928,6.042885299958726,-91.10253069534467,-12.86412697817914,-56.665295961829116,-3.23783752388804,16.295301582543313,1188.1072201196578,-356.5163898777184,-186.48373627608964,-10.554208915701867,-91.30693196437711,46.37950887448321,-135.26927917462936,-31.82465545021921,-13.549732953622865
11.71,-48.45703145,-18.34400977,-5.57601766,132.46197606,-2.83035765,-0.17784636,0.0,0.46460232,0.0,-0.00104208,0.0,-102.72146215,829.67921226,59.69622164,0.22379353,0.0,0.11877273,0.0,8.44125351,0.0,424.01133997826724,-176.59815603102868,982.6475441226075,8.647149548469624,-97.34776870136601,-12.757957932076778,-56.250612158229295,-3.039238955296561,16.21036634566142,1233.9097956558182,-349.1669937922325,-179.01193352568572,-6.366152308863956,-93.53773098012793,46.45570077815667,-135.20307965176553,-31.61106831041328,-13.438567717115685
11.72,-51.87323719,-9.98694439,-17.27579419,93.70154319,9.17892981,-0.17786174,0.0,0.46583699,0.0,-0.0006432,0.0,-77.69584617,881.91022594,55.06752156,0.2212134,0.0,0.11930094,0.0,10.91161677,0.0,429.5308813279879,-194.92543148349563,990.8200625772856,11.25141379698006,-103.59300670738622,-12.651788885974435,-55.83592835462955,-2.840640386705118,16.125431108779548,1279.7123711919705,-341.8175977067479,-171.5401307752831,-2.1780957020267913,-95.76852999587835,46.531892681830115,-135.1368801289017,-31.39748117060739,-13.327402480608525
11.73,-50.18333907,-1.80701174,-28.94640446,57.61199709,15.32173379,-0.17836281,0.0,0.46690911,0.0,-0.00026964,0.0,-41.29450751,871.50950029,50.35413063,0.21657762,0.0,0.11956896,0.0,12.69758055,0.0,435.0504226777086,-213.25270693596258,998.9925810319637,13.855678045490496,-109.83824471340645,-12.54561983987209,-55.42124455102981,-2.6420418181136744,16.040495871897672,1325.514946728123,-334.4682016212633,-164.0683280248805,2.0099609048103737,-97.99932901162879,46.60808458550356,-135.0706806060379,-31.183894030801497,-13.216237244101364
11.74,-43.86786598,2.45524527,-23.41076846,25.93251938,7.06298985,-0.17733413,0.0,0.46604947,0.0,-1.137e-05,0.0,-25.41205675,825.28220351,55.48172873,0.21039124,0.0,0.11976346,0.0,13.76808802,0.0,440.5699640274293,-231.57998238842956,1007.1650994866418,16.459942294000932,-116.08348271942668,-12.439450793769746,-55.006560747430065,-2.4434432495222316,15.955560635015797,1371.3175222642753,-327.1188055357787,-156.5965252744779,6.198017511647542,-100.23012802737921,46.68427648917701,-135.00448108317408,-30.97030689099561,-13.105072007594206
11.75,-36.82137516,2.66047071,-3.94775841,3.87675329,0.96096213,-0.17153412,0.0,0.46458149,0.0,-1.25e-06,0.0,-12.3068028,769.53202133,61.0015058,0.20353938,0.0,0.11991645,0.0,13.5614779,0.0,446.08950537715,-249.90725784089653,1015.3376179413199,19.064206542511368,-122.32872072544691,-12.333281747667403,-54.59187694383032,-2.2448446809307883,15.870625398133921,1417.1200978004276,-319.76940945029406,-149.1247225240753,10.386074118484704,-102.46092704312963,46.760468392850456,-134.93828156031026,-30.756719751189717,-12.993906771087046
11.76,-30.21890529,2.43892109,0.27366019,-0.2348822,-0.05855777,0.0,0.0,0.0,0.0,0.11709645,0.0,-0.78430581,712.67546902,63.71340329,0.19662469,0.0,0.12012041,0.0,12.13168286,0.0,406.2488403714737,-321.0771715437181,991.2258685824424,20.217057998948565,-215.1166325565098,-34.52436586647979,-49.12675556334325,-1.4913807604695999,15.48020501138952,1289.2179968459786,-137.1474764324518,-113.55946276502542,-1.556386192395236,-111.53544033642898,66.84203784825655,-131.5465246188891,-29.048850183984577,-14.63600841072368
11.77,-24.54067168,2.3435354,0.35483057,-0.27161712,-0.07455214,0.0,0.0,0.0,0.0,0.15210837,0.0,4.7093639,665.1316165,64.5640237,0.19018719,0.0,0.12040923,0.0,10.07681214,0.0,411.12706010162924,-300.9720374978111,970.3462470650093,6.391930961977462,-253.21721079375945,-38.73323217101776,-47.09065954091481,-1.6666041703171424,15.252414578587715,1293.83688592956,-203.88306430698685,-113.64357000175222,8.445366041702489,-115.57609216751331,71.41536884527741,-129.93797371648864,-28.44608165410903,-15.652304187839425
11.78,-20.21166205,2.26961513,0.09881555,-0.06840877,-0.02088535,0.0,0.0,0.0,0.0,0.04235618,0.0,10.52473081,625.82729217,63.43317958,0.18461375,0.0,0.1207545,0.0,7.8981683,0.0,416.00527983178483,-280.8669034519041,949.4666255475762,-7.433196074993642,-291.3177890310091,-42.94209847555573,-45.05456351848636,-1.8418275801646848,15.02462414578591,1298.455775013141,-270.6186521815219,-113.72767723847905,18.447118275800214,-119.61674399859764,75.98869984229827,-128.3294228140882,-27.843313124233482,-16.66859996495517
11.79,-16.8480252,2.05100669,0.04953133,-0.0312965,-0.01050617,0.0,0.0,0.0,0.0,0.02123172,0.0,11.57868381,595.49171757,61.43762439,0.18007615,0.0,0.12107849,0.0,5.86409044,0.0,451.56798878550336,-250.78736152763236,942.7331382422259,-10.604388573502348,-308.7534555674898,-45.79938264544628,-43.577500592805606,-2.022162972675121,14.85872135354918,1276.773970959517,-326.0072838352336,-130.29835506952628,25.587968141937736,-122.57509450016006,77.61852691336698,-127.12224401266526,-27.3632965561492,-17.44401573375354
11.8,-14.26914237,1.78348459,-0.0016588,0.00096963,0.00035366,-0.09655832,0.0,0.44921817,0.0,0.0,0.0,7.45037101,574.30782012,57.78948052,0.17663164,0.0,0.12117732,0.0,3.99185129,0.0,518.2104782893707,-210.60491693749861,950.3280219826202,-2.984397779420819,-305.25799575969774,-47.287672994574045,-42.66667247848468,-2.207676202697608,14.755503466168248,1228.4526564657651,-369.90278269844896,-163.5679908777695,29.83106021508363,-124.43720098196471,76.26693052320314,-126.32160796730506,-27.007613295579773,-17.975448370133748
11.81,-12.37961115,1.4713585,-0.06232275,0.03411951,0.01322765,-0.07305401,0.0,0.44432808,0.0,-0.0,0.0,1.46490543,561.96722568,54.51929832,0.17407942,0.0,0.12100066,0.0,2.31176345,0.0,584.8529677932262,-170.422472347372,957.9229057230131,4.6355930146593565,-301.7625359519062,-48.77596334370155,-41.75584436416391,-2.393189432720061,14.652285578787334,1180.131341972022,-413.79828156165655,-196.8376266860068,34.07415228822877,-126.29930746376904,74.91533413303955,-125.52097192194499,-26.65193003501041,-18.506881006513858
11.82,-11.35206526,1.19178241,-0.04504025,0.02337197,0.0094622,-0.04770987,0.0,0.43910799,0.0,-0.0,0.0,-3.09893056,557.69531138,51.6975864,0.17259602,0.0,0.12047639,0.0,0.78417744,0.0,651.4954572970817,-130.2400277572454,965.517789463406,12.255583808739534,-298.26707614411475,-50.264253692829044,-40.84501624984314,-2.5787026627425145,14.549067691406421,1131.8100274782787,-457.69378042486414,-230.10726249424408,38.31724436137391,-128.16141394557337,73.56373774287596,-124.72033587658494,-26.29624677444104,-19.038313642893968
11.83,-11.0563166,0.95457876,-0.02747971,0.01363015,0.00565587,-0.02104899,0.0,0.43373479,0.0,0.0,0.0,-6.63630851,560.71013133,51.6035483,0.17219415,0.0,0.11965876,0.0,-0.58087191,0.0,718.1379468009372,-90.05758316711879,973.1126732037989,19.87557460281971,-294.77161633632323,-51.75254404195655,-39.934188135522376,-2.764215892764968,14.445849804025507,1083.4887129845354,-501.5892792880718,-263.3768983024814,42.560336434519044,-130.0235204273777,72.21214135271238,-123.91969983122488,-25.940563513871677,-19.56974627927408
11.84,-11.49693685,0.77162841,-0.01910055,0.00911471,0.00382356,0.00648807,0.0,0.42834723,0.0,0.0,0.0,-9.7555932,569.88116888,51.68529441,0.17288918,0.0,0.11849995,0.0,-1.84367793,0.0,784.7804363047927,-49.875138576992185,980.7075569441918,27.495565396899885,-291.27615652853177,-53.24083439108405,-39.023360021201604,-2.9497291227874216,14.342631916644592,1035.167398490792,-545.4847781512793,-296.6465341107187,46.80342850766418,-131.885626909182,70.86054496254879,-123.11906378586481,-25.58488025330231,-20.10117891565419
11.85,-12.70269849,0.67252595,-0.0171682,0.00791744,0.00333497,0.03456907,0.0,0.42302023,0.0,0.0,0.0,-11.25739285,583.11378514,53.46372398,0.17468445,0.0,0.117,0.0,-3.03425369,0.0,851.4229258086482,-9.69269398686555,988.3024406845847,35.11555619098006,-287.78069672074025,-54.72912474021155,-38.11253190688084,-3.135242352809875,14.239414029263678,986.8460839970489,-589.380277014487,-329.916169918956,51.04652058080932,-133.74773339098635,69.5089485723852,-122.31842774050475,-25.229196992732945,-20.6326115520343
11.86,-14.63335417,0.63224547,-0.02091219,0.00935005,0.00400575,0.06298137,0.0,0.4176852,0.0,0.0,0.0,-11.88454464,599.41430102,56.31787017,0.17748585,0.0,0.11515572,0.0,-4.14653967,0.0,-298.9072828685283,-510.0879681274905,726.2319521912273,191.0074661354605,-49.895163346614574,-17.77239043824669,-30.097896414342717,-4.09123505976095,13.097705179282885,780.0858326693224,-279.59651792828464,-241.09596015936194,-58.394494023904315,-70.23913944223196,48.29196812749036,-115.57349003984072,-20.782509960159423,-23.696501992031852
11.87,-17.15670636,0.64517518,-0.03453976,0.01501161,0.00659594,0.09162338,0.0,0.41229856,0.0,0.0,0.0,-12.13935527,616.77974679,62.27504573,0.18118843,0.0,0.11302348,0.0,-5.1472714,0.0,-243.42680478088113,-499.42661354581764,908.23992031871,136.6297768924348,-25.834605577691242,-25.373984063744388,-28.048494023904553,-4.218725099601583,12.680175298804816,786.3137211155373,-330.6435298804738,-255.56926693226973,-60.0454900398405,-49.58256573705351,40.83061354581735,-113.79181673306788,-19.36418326693239,-24.21283665338641
11.88,-20.21609908,0.70085712,-0.07334033,0.0310982,0.01408497,0.12044759,0.0,0.40682068,0.0,0.0,0.0,-12.38749553,634.40865786,69.08870464,0.18558788,0.0,0.11067411,0.0,-5.95186876,0.0,-187.94632669322408,-488.76525896414284,1090.247888446225,82.25208764939944,-1.7740478087636333,-32.97557768924344,-25.999091633466026,-4.346215139442238,12.26264541832667,792.5416095617534,-381.69054183267207,-270.0425737051801,-61.69648605577699,-28.925992031871388,33.36925896414302,-112.01014342629473,-17.9458565737051,-24.729171314741066
11.89,-23.77028779,0.78930632,-0.18367468,0.07631787,0.03565677,0.14947407,0.0,0.4012229,0.0,0.0,0.0,-11.88493025,650.86597574,73.91012418,0.19043843,0.0,0.10822139,0.0,-6.45876399,0.0,-137.98990584289947,-478.27164323487665,1248.7259634980003,33.357275893202576,20.521675480459304,-39.67028956532953,-24.098037533857852,-4.471924416354962,11.866983103314842,797.10126080227,-426.60344705275367,-283.5490107055334,-62.86814587901453,-9.783131690958228,26.111422030181775,-110.34193666967624,-16.625785502386165,-25.22605056107314
11.9,-27.75736563,0.90995203,-0.490144,0.20052859,0.09722677,0.17876475,0.0,0.39543323,0.0,0.0,0.0,-9.37898674,664.16713749,73.41766762,0.19550819,0.0,0.10577612,0.0,-6.62338356,0.0,-133.8960067070811,-469.17065007094027,1211.8512053398683,29.98309815555268,28.165168321939912,-38.83577389397652,-23.42861924416355,-4.582849219656907,11.652872436476203,787.8106636140849,-420.58900103185863,-289.0281800593319,-60.060200567522244,-3.207612537082402,20.543254869082922,-109.61576615503677,-16.121464594350574,-25.561404617567394
11.91,-31.72913403,1.0774928,-1.26030212,0.5102854,0.26000438,0.20839151,0.0,0.3893402,0.0,1e-08,0.0,-5.30587908,672.49060599,71.6266323,0.20054499,0.0,0.10351625,0.0,-6.41573617,0.0,-129.80210757126278,-460.06965690700383,1174.9764471817366,26.608920417902784,35.808661163420524,-38.001258222623505,-22.759200954469247,-4.693774022958854,11.438761769637562,778.5200664258998,-414.5745550109636,-294.5073494131303,-57.252255256029954,3.367906616793425,14.97508770798407,-108.88959564039727,-15.61714368631498,-25.89675867406165
11.92,-35.34500661,1.29581424,-2.869266,1.15486677,0.62403018,0.2384251,0.0,0.3828447,0.0,3e-08,0.0,-0.44766701,675.10578312,69.70946145,0.20535047,0.0,0.10152478,0.0,-5.88496331,0.0,-125.70820843544445,-450.96866374306745,1138.1016890236046,23.234742680252893,43.45215400490113,-37.166742551270495,-22.089782664774944,-4.8046988262607995,11.224651102798923,769.2294692377147,-408.5601089900685,-299.9865187669288,-54.44430994453767,9.943425770669252,9.406920546885218,-108.1634251257578,-15.112822778279387,-26.232112730555905
11.93,-38.44034627,1.53642757,-5.42339303,2.17932348,1.24517985,0.26889856,0.0,0.3759019,0.0,1.1e-07,0.0,4.84434389,672.49447586,67.59159563,0.2097815,0.0,0.09983112,0.0,-5.09025142,0.0,-121.61430929962611,-441.867670579131,1101.226930865473,19.860564942603,51.09564684638174,-36.332226879917485,-21.42036437508064,-4.915623629562746,11.010540435960282,759.9388720495297,-402.54566296917346,-305.46568812072724,-51.63636463304538,16.51894492454508,3.8387533857863687,-107.4372546111183,-14.608501870243796,-26.56746678705016
11.94,-40.95592592,1.71735619,-8.26695692,3.32808659,1.99050824,0.29980384,0.0,0.3685139,0.0,5.3e-07,0.0,10.48120108,665.44689549,65.44274108,0.21377946,0.0,0.0984344,0.0,-4.10934287,0.0,-117.52041016380778,-432.7666774151946,1064.352172707341,16.4863872049531,58.73913968786235,-35.49771120856447,-20.75094608538634,-5.026548432864692,10.796429769121643,750.6482748613446,-396.5312169482784,-310.9448574745257,-48.8284193215531,23.094464078420906,-1.7294137753124836,-106.71108409647883,-14.104180962208204,-26.902820843544415
11.95,-42.85269355,1.77099071,-10.30957519,4.17020743,2.57780333,0.33105145,0.0,0.360716,0.0,5.01e-06,0.0,14.69343217,655.34925051,62.1566173,0.21729155,0.0,0.09731789,0.0,-3.02603343,0.0,-113.42651102798945,-423.6656842512582,1027.4774145492092,13.112209467303206,66.38263252934296,-34.66319553721146,-20.081527795692036,-5.137473236166638,10.582319102283002,741.3576776731594,-390.51677092738333,-316.42402682832414,-46.02047401006081,29.669983232296737,-7.297580936411336,-105.98491358183934,-13.599860054172613,-27.238174900038672
11.96,-44.20296687,1.71176897,-11.04104857,4.49508537,2.83256197,0.36222534,0.0,0.35254191,0.0,5.73e-05,0.0,17.79962461,642.9584562,58.56964762,0.22038429,0.0,0.09644167,0.0,-1.93036667,0.0,-109.33261189217038,-414.56469108732017,990.6026563910709,9.738031729652715,74.02612537082493,-33.8286798658583,-19.412109505997613,-5.248398039468604,10.368208435444323,732.0670804849727,-384.5023249064872,-321.90319618212357,-43.21252869856802,36.245502386173726,-12.86574809751118,-105.25874306719973,-13.09553914613693,-27.573528956532986
11.97,-45.10159871,1.61720244,-10.80568633,4.43323527,2.82590503,0.39136346,0.0,0.34387477,0.0,0.00045448,0.0,18.57813284,629.74235511,53.88895324,0.2230841,0.0,0.09574638,0.0,-0.85062929,0.0,15.11646239554633,-315.28777158773846,1044.0625626740955,-24.732590529248085,131.519442896937,8.506323119777981,-13.627130919219963,-6.827214484679697,8.164707520891342,602.1414484679668,-502.8071309192197,-431.5415320334284,5.138718662953852,86.12938718663023,-64.2045125348198,-98.63498607242329,-8.723175487465106,-31.051838440111457
11.98,-46.04394539,1.61227438,-10.61524329,4.39099768,2.83370248,0.41284599,0.0,0.33429013,0.0,0.00208617,0.0,24.17621127,616.87162976,53.91430863,0.22570403,0.0,0.0951782,0.0,0.1781235,0.0,71.04301275473028,-222.04631139128784,1059.1849787421204,-27.862630112886798,150.3143410057184,23.07896642721067,-11.999803547866817,-7.380652397009258,7.768871133264901,606.1694502272396,-495.91664565312976,-470.6450359184886,26.524879049993523,98.6458803694478,-79.33425890631932,-96.73643747251128,-7.381729951619943,-31.660253628500243
11.99,-47.82991355,1.31987022,-11.49044737,4.78225154,3.12749356,0.42242503,0.0,0.32377281,0.0,0.00533349,0.0,29.37573151,607.42571144,47.31594639,0.22798,0.0,0.09461211,0.0,1.87442409,0.0,126.96956311391423,-128.80485119483725,1074.3073948101455,-30.99266969652551,169.10923911449981,37.65160973464336,-10.372476176513668,-7.934090309338819,7.37303474563846,610.1974519865123,-489.02616038703985,-509.74853980354885,47.911039437033196,111.16237355226536,-94.46400527781886,-94.83788887259928,-6.0402844157747815,-32.26866881688903
