time,ankle_angle_r,ankle_angle_l,imu0_acc_x,imu0_acc_y,imu0_acc_z,imu0_gyro_x,imu0_gyro_y,imu0_gyro_z,imu0_roll,imu0_pitch,imu0_yaw,imu1_acc_x,imu1_acc_y,imu1_acc_z,imu1_gyro_x,imu1_gyro_y,imu1_gyro_z,imu1_roll,imu1_pitch,imu1_yaw,madgwick_angle
0.0133333000000002,3.92561873,8.7707985,336.52966522279104,-117.3242823433192,939.7027339532912,-0.5221341592705939,-0.3942328173749739,-0.1084656347499477,-20.85403880289583,-5.8,29.45403880289583,1002.2759954563352,42.68861012328487,4.243476993911566,-1.8569667706661095,0.5257671826250261,0.6584656347499478,-91.93192239420834,4.404038802895829,-6.5440388028958285,0.005024424623126111
0.0300000000000002,3.87802003,8.76285071,337.266750068155,-109.55460030896909,940.3186541665405,-0.7998031078666021,-0.4245239754036293,-0.1690479508072586,-20.859087329233937,-5.8,29.459087329233935,999.9334792354526,50.5744082634115,10.160349862175597,-2.503178141944092,0.4954760245963707,0.7190479508072586,-91.92182534153211,4.409087329233938,-6.549087329233938,0.010359873460904763
0.0466667000000002,3.77384063,8.77132068,337.19492282559884,-111.24729959275956,939.6562036512288,-0.786574069772842,-0.3390895000077403,-0.1292592558182736,-20.85577160465152,-5.8,29.46,1000.9032562673232,50.65748447685849,11.642268546476526,-2.015339465167761,0.4371450581440351,0.588348755826014,-91.91154320930303,4.41,-6.543657406977284,0.014839561786486303
0.0633333,3.76639106,8.77394345,336.94459220204084,-115.02806622690883,938.7116571747108,-0.7091522274353136,-0.2281181926572828,-0.0673217819482508,-20.850610148495687,-5.8,29.46,1002.603956070671,49.01872214738081,12.14551052167046,-1.2772512348833231,0.3726268561960947,0.4154399746055338,-91.90122029699135,4.41,-6.535915222743531,0.018205786370835593
0.08,3.77005251,8.75636007,336.6942600764931,-118.80885554574876,937.7671050308916,-0.6317299205648716,-0.1171462194763161,-0.0053839364518973,-20.84544866137099,-5.8,29.46,1004.3046660782584,47.379949985289784,12.648755516328334,-0.5391585760517765,0.308108267137393,0.2425301559282134,-91.89089732274198,4.41,-6.528172992056486,0.020458273662955648
0.0966667000000001,3.77250955,8.74933141,336.44392795094535,-122.58964486458868,936.822552887072,-0.5543076136944298,-0.0061742462953492,0.0565539090444561,-20.840287174246296,-5.8,29.46,1006.0053760858456,45.74117782319876,13.152000510986204,0.1989340827797701,0.2435896780786914,0.0696203372508931,-91.8805743484926,4.41,-6.520430761369442,0.02159678441376277
0.1133333000000007,3.68493907,8.55397879,329.21371400943804,-115.88590856347189,940.0128146515046,-0.4049510327222116,-0.2300979345555767,-0.1677656842268192,-20.84,-5.822912586060185,29.472912586060183,1003.7978890693896,39.11219455403388,13.892292488589453,-0.4819514195095009,0.0273812176065458,0.5693253655140134,-91.83543706969908,4.4158251721203685,-6.497087413939815,0.02498055323151649
0.1300000000000007,3.53301827,8.48143176,338.0281854516391,-117.56199040767396,940.1202557953636,-0.4565227817745827,-0.1269544364508345,-0.3267785771382968,-20.84,-5.827210231814549,29.47721023181455,1000.7551558752996,31.973804956034837,6.650759392485671,0.6956035171863064,-0.2863469224620451,-0.0366426858513473,-91.81394884092724,4.424420463629097,-6.492789768185451,0.02733584653195051
0.1466667000000008,3.27447851,8.29749026,342.3992467965621,-118.96024687412744,940.19,-0.4509923520833925,-0.0545570723837291,-0.4245570723837292,-20.838185690794575,-5.830907154602712,29.48090715460271,998.801771710465,29.7766172628839,3.6336789426331046,0.9402004126461376,-0.4954429276162708,-0.3855494244671217,-91.79546422698644,4.4309071546027115,-6.48002129937017,0.028968546796051497
0.1633333000000005,3.05944244,8.16413626,338.54944886910107,-119.84448521609632,940.19,-0.3398161862802853,-0.0390441190158537,-0.4090441190158537,-20.833014706338616,-5.833492646830691,29.48349264683069,998.8638235239366,36.72124938723613,8.432352517762569,-0.541286633985965,-0.5109558809841462,-0.2588603052961391,-91.78253676584654,4.4334926468306906,-6.451580884862398,0.030444148197001985
0.1800000000000006,3.05158222,8.15225664,334.6996278427599,-120.72872886351652,940.19,-0.2286393534175132,-0.0235310725698855,-0.3935310725698855,-20.82784369085663,-5.836078154571686,29.48607815457169,998.9258757097203,43.665923179547896,13.231054885048732,-2.022782569575928,-0.5264689274301144,-0.1321704259873988,-91.76960922714156,4.436078154571686,-6.423140299711457,0.031762456538160844
0.1966667000000006,2.71167519,7.96297308,330.84980681641883,-121.6129725109367,940.19,-0.1174625205547411,-0.0080180261239173,-0.3780180261239173,-20.82267267537464,-5.838663662312681,29.48866366231268,998.9879278955044,50.610596971859664,18.029757252334896,-3.5042785051658907,-0.5419819738760827,-0.0054805466786584,-91.7566816884366,4.438663662312681,-6.394699714560515,0.03292328332605405
0.2133333000000004,2.44514079,7.92160394,348.0747652320786,-111.86748079569594,944.8112276366824,0.0674305642437169,0.0845393782059414,-0.5244027899412037,-20.81224768547479,-5.85,29.502247685474792,1001.1790484486426,31.61300287751905,11.240954460152956,0.676752189415685,-0.6994050731890321,-0.5034861128487433,-91.71325694357564,4.4522476854747906,-6.356513887151257,0.033175548475836196
0.2300000000000004,2.3215984,7.90134699,372.252218816465,-99.52332165644908,958.9382003002632,0.2238177155010674,0.5589137370199047,-0.7433448017014944,-20.817460590516703,-5.85,29.507460590516704,998.25460872013,83.40842737395354,24.85706242962627,-1.580435693732074,-0.3501404353809493,-0.5347635431002136,-91.6976182284499,4.457460590516702,-6.325236456899786,0.028702336126367682
0.2466667000000004,1.7896776,7.95760879,377.3899694992604,-92.13501643954484,963.2376132930513,0.2175834029697197,0.665001494504075,-0.7923083820788038,-20.81725278009899,-5.851373609950504,29.511373609950507,998.3725639744168,94.3201162659888,30.91995187054056,-2.730823568168673,-0.3736790030211586,-0.3741779263354021,-91.687252780099,4.46,-6.299011120395963,0.0231746501062721
0.2633333000000002,1.42549071,8.00184628,364.4430092241433,-89.45402611364656,958.2023867069486,0.0568846821366565,0.4212751012405958,-0.6798192774956596,-20.81189615607122,-5.854051921964389,29.51405192196439,1001.3803083660088,66.39871352124408,29.80845238477854,-2.829921112682395,-0.7513209969788572,-0.0313539885582007,-91.68189615607122,4.46,-6.277584624284888,0.020082568274188087
0.2800000000000002,0.6241658,8.00637563,351.4959712669536,-86.77301970174194,953.1671299093656,-0.1038150028925911,0.1775472456129034,-0.5673294979751862,-20.806539499903582,-5.85673025004821,29.51673025004821,1004.3880708041396,38.4771432474123,28.69694622999291,-2.9290192517837643,-1.1289652567975892,0.311472006170861,-91.67653949990358,4.46,-6.256157999614321,0.019426295247958685
0.2966667000000003,0.27713886,7.80228778,338.54893330976387,-84.09201328983733,948.1318731117824,-0.2645146879218387,-0.0661806100147888,-0.4548397184547129,-20.80118284373594,-5.859408578132031,29.51940857813203,1007.3958332422704,10.555572973580524,27.58544007520728,-3.028117390885134,-1.5066095166163214,0.6542980008999228,-91.67118284373592,4.46,-6.234731374943755,0.021205924214172056
0.3133333,0.05505332,7.72436795,337.1967191355246,-121.31141221671918,948.3032966531592,1.0912863875131318,0.5113906348491661,-0.8153383160738406,-20.798074350892993,-5.86,29.53,1002.7152124268348,67.81619978988442,21.53763767071889,2.1926553804592492,-3.3060149482215215,0.2923937865826213,-91.641925649107,4.468074350892991,-6.158074350892991,0.017179627757936487
0.33,-0.14659637,7.59529375,344.28062944619546,-97.128063034669,963.6917910850968,0.6010157586672653,-0.5241809995497558,-0.7252886087348038,-20.79307158937415,-5.86,29.53,1000.8842017109408,45.46386132372797,14.698862674470936,-1.6194488968933047,-3.035865826204412,1.2078991445294944,-91.64692841062585,4.463071589374156,-6.153071589374156,0.023531429523061746
0.3466667000000001,-0.18249765,7.42042095,348.6773115873516,-86.07458241411919,971.136499107049,0.3473115873516132,-1.1068951570543115,-0.6815865111881503,-20.79096554259901,-5.86,29.530965542599013,998.6515570963336,34.02640487446163,11.702100535770583,-3.1827382077949244,-2.9288980985397637,1.7226884126483868,-91.65,4.4580689148019745,-6.143241201806913,0.0357189484835163
0.3633333000000007,-0.43816975,7.35954253,348.79987299086037,-95.90450722614963,965.9463988564222,0.4698729908603899,-0.9693262347485418,-0.7116015487821363,-20.793466795731845,-5.86,29.533466795731844,995.7801184998424,39.94937229300823,14.816160686146642,-1.1692294358650224,-3.0814745396425263,1.60012700913961,-91.65,4.45306640853631,-6.125732429877087,0.0465228894423687
0.3800000000000008,-0.29982803,7.03957412,348.9224351297405,-105.73449101796452,960.7562674650696,0.5924351297405247,-0.8317564870259417,-0.7416167664670673,-20.795968063872255,-5.86,29.535968063872257,992.9086626746506,45.872375249501275,17.930239520958228,0.8442914171657625,-3.2340518962075917,1.4775648702594752,-91.65,4.448063872255489,-6.108223552894211,0.05594237573988438
0.3966667000000008,-0.38364158,6.90314077,349.04499726862065,-115.56447480977944,955.566136073717,0.7149972686206594,-0.6941867393033415,-0.7716319841519983,-20.798469332012665,-5.86,29.538469332012667,990.0372068494588,51.79537820599432,21.044318355769818,2.857812270196548,-3.3866292527726576,1.355002731379341,-91.65,4.443061335974667,-6.090714675911334,0.0639765681388878
0.4133333000000005,-0.43675466,6.82128338,341.6487684807318,-71.02282345046802,956.2620698967436,0.5646958998657703,-0.6607409273917441,-0.388518145216512,-20.79845682123196,-5.87,29.551543178768043,995.36,45.72561575963409,-20.104640464517804,1.058518145216512,-3.303893648489471,0.6256157596340908,-91.66,4.415370463695872,-6.138456821231957,0.0717077832644026
0.4300000000000006,-0.09577783,6.31114901,341.20141382049246,-100.55279586973896,960.4982446386024,-0.1017712470214701,-0.6333518665607615,-0.443296266878477,-20.79389197776013,-5.87,29.556108022239872,995.36,45.94929308975378,-27.57272438443236,1.113296266878477,-2.605472597299418,0.8492930897537811,-91.66,4.40167593328038,-6.133891977760126,0.07914230032419317
0.4466667000000006,-0.21625766,6.0289592,340.46034520835406,-125.32042725092424,962.851412811032,-0.6425860397721523,-0.6124549815129415,-0.4773159288498018,-20.79,-5.870818327170981,29.56040916358549,995.6897858499052,45.47101753772342,-31.792300339761603,1.1996888677925557,-2.0500980313780457,0.9700330268811648,-91.65877250924352,4.389590836414509,-6.127135854901568,0.08634441369933114
0.4633333000000004,-0.44528431,5.45623873,338.0203962726091,-122.54182783718058,954.3129794477196,-0.4566058592318667,-0.6291099230538627,-0.3912653975550428,-20.79,-5.876369974351287,29.56318498717564,997.9270996635688,40.93254596782242,-17.2220023150458,1.4689437560374463,-2.3221287432130904,0.4953671929649136,-91.65044503847308,4.386815012824356,-6.107705089770493,0.09371507707351857
0.4800000000000004,-0.72314633,5.12154472,335.5804326971119,-119.7632117517737,945.7744948536024,-0.2706245628060312,-0.645764964524833,-0.3052143499550294,-20.79,-5.8819216548416104,29.56596082742081,1000.1644269011692,36.394047166983,-2.651616868191912,1.738200259818134,-2.5941610872389393,0.0206985110422588,-91.64211751773756,4.384039172579194,-6.0882742080543615,0.10125399106266994
0.4966667000000004,-1.04395066,4.57225565,333.1404691216148,-116.9845956663668,937.2360102594848,-0.0846432663801957,-0.6624200059958034,-0.2191633023550159,-20.79,-5.887473335331935,29.568736667665966,1002.4017541387695,31.85554836614358,11.918768578661975,2.007456763598821,-2.8661934312647883,-0.453970170880396,-91.6337899970021,4.381263332334033,-6.068843326338229,0.10896093983758876
0.5133333000000002,-1.28123336,4.19827065,330.5182626344013,-99.15792920845716,945.2071387492014,0.8599757730669818,-0.7320670963798559,-0.5646076459311501,-20.780926374572836,-5.900926374572834,29.58,1004.8271445003196,36.89969613535969,10.160946906342875,7.760473453171438,-2.697317784013572,0.8947735392993024,-91.63,4.346294501708665,-6.049073625427166,0.11738283866233164
0.5300000000000002,-1.61403228,4.00486314,341.2564832050678,-96.89822604395296,951.9908787819855,0.6099266524046306,-1.0423132275720324,-0.3377112216264241,-20.78555691384436,-5.905556913844359,29.58,1002.1136484872058,39.49742866668523,8.466169532964718,6.913084766482359,-3.6836226488484014,0.4687639263190003,-91.63,4.327772344622565,-6.044443086155641,0.12890998249467991
0.5466667000000003,-2.17443067,3.72447209,351.3073131713403,-94.935471595029,958.2138643070332,0.3706826298838173,-1.3379521103485483,-0.1235269210663891,-20.79,-5.910113771647303,29.58,999.404419911303,41.72058873918679,6.559439117751106,6.1110358497883785,-4.621012039863072,0.0523772996307072,-91.63,4.309317370116182,-6.040568858236514,0.14339613740175322
0.5633333,-2.95268922,3.28999619,345.0653829823112,-100.01107984419,951.1456723100011,0.3875451157614286,-1.2873646527157143,-0.2106497647673811,-20.79,-5.912924185960239,29.58,996.796355428899,35.06552764615618,-0.3710425779471551,6.3836460381430955,-4.39898930914119,-0.1359204593359527,-91.63,4.2924548842385715,-6.054620929801191,0.15737089017598294
0.5800000000000001,-3.51384943,3.03395791,338.823415341551,-105.08671854712242,944.0774379036474,0.4044077028143601,-1.2367768915569195,-0.2977731312075277,-20.79,-5.915734617135727,29.58,994.1882752980456,28.410426622599175,-7.301565856702039,6.65625786216549,-4.17696524627759,-0.3242193480936887,-91.63,4.275592297185639,-6.0686730856786335,0.1708335720119718
0.5966667000000001,-3.5963323,2.39366604,332.5814477007908,-110.16235725005484,937.0092034972936,0.4212702898672917,-1.186189130398125,-0.3848964976476742,-20.79,-5.918545048311215,29.58,991.5801951671922,21.755325599042177,-14.232089135456924,6.928869686187884,-3.9549411834139914,-0.512518236851425,-91.63,4.258729710132708,-6.082725241556076,0.18378347973218262
0.6133333000000007,-3.95270689,2.36730769,335.71769682523643,-115.78224677959253,935.5432272035704,0.9273489197687864,-0.5648119484734196,-0.5278391317577941,-20.80630652195963,-5.936306521959633,29.58,1000.780319707882,40.00582746729082,-39.12447094025965,2.544940156202027,-2.7474630287046335,-1.303027183284374,-8.499351049794356,0.6462586469212539,73.57551303378378,0.19051467837847016
0.6300000000000008,-4.0473881,2.58981792,336.57232576249186,-116.33957495133028,939.9176865671644,0.7172608695652007,-0.4589020116807283,-0.1405548345230157,-20.81481700194679,-5.944817001946788,29.58,999.6439545749512,37.98351719662521,-24.075049967552506,4.222338092148096,-2.3843919532770865,-1.6960330953926144,,,,0.1961856634374522
0.6466667000000008,-4.12720929,2.68993007,335.9696754371943,-116.24510117011415,944.0440473640462,0.3639098916205693,-0.5000763611368761,0.3060901083794306,-20.820221458486525,-5.950110729243263,29.58,995.836491032322,30.49021383356242,-2.7737113079063556,7.1435089676780095,-2.2646506282170193,-1.957418859298579,,,,0.20226846386021033
0.6633333000000006,-3.72127592,3.02429855,336.6836766520669,-117.08964738322838,942.9384111544488,0.2173797915534338,-0.7425170721570458,0.4526202084465661,-20.825549825761698,-5.952774912880847,29.58,995.5114606285368,29.77354843505225,-4.787834137920074,7.468539371463292,-2.3765463409955596,-2.1359191630167262,,,,0.2107753308022896
0.6800000000000006,-3.92485176,3.21355231,337.39768215096393,-117.93419866364016,941.8327683110074,0.0708488123021786,-0.9849592378273042,0.5991511876978213,-20.830878225007194,-5.955439112503597,29.58,995.1864282745612,29.05687873653247,-6.801969052719144,7.793571725438803,-2.4884427251510637,-2.3144205377409826,,,,0.22170626347916172
0.6966667000000006,-4.14929058,3.85736581,338.111687649861,-118.77874994405194,940.727125467566,-0.0756821669490764,-1.2274014034975629,0.7456821669490765,-20.836206624252693,-5.9581033121263465,29.58,994.8613959205856,28.3402090380127,-8.816103967518215,8.118604079414315,-2.6003391093065673,-2.4929219124652384,,,,0.23506113327685413
0.7133333000000004,-4.12629431,4.13540358,329.2150463980457,-124.08666422466456,934.2199792429788,0.481612942612991,-0.8388852258851848,0.3893833943833606,-20.856749694749695,-5.96,29.58,981.3391172161164,39.68878388278475,24.706612942615493,-0.7869584859591559,-4.313095238095357,-3.591482295482366,-91.64512454212456,4.086500610500608,-6.292372405372416,0.24452125044696346
0.7300000000000004,-4.21749126,4.47154365,326.2313736910402,-135.43238524911757,929.2827344056492,1.0753499109756586,-1.0196565772399506,0.447202522859647,-20.864748468479345,-5.955251531520656,29.589496936958685,984.3252050577904,25.066458339619935,32.88130126444763,2.563597489211587,-5.93582883181945,-4.473276397984144,-91.64525153152066,4.051509189123939,-6.253521441289192,0.25577538691728374
0.7466667000000005,-4.13197266,4.41140108,325.00414286145394,-146.48249234994145,925.2288489603764,1.568254096629159,-1.3264642846365176,0.6031211938316727,-20.869778103026828,-5.950221896973172,29.59955620605366,990.2199367474426,7.140840812384468,34.35498418686065,7.990573165947577,-7.318978332377742,-5.207603041916911,-91.64022189697316,4.021331381839031,-6.183106557624406,0.27008522537513646
0.7633333000000011,-3.72862594,4.20115154,332.32333577381974,-134.2567236639965,927.6561825951954,1.81130421637524,-1.563907795391419,0.4043172577218357,-20.87260357901618,-5.95,29.6,994.546790423272,10.734427063245931,12.047445513971326,11.40636639973874,-7.395621474097076,-5.987227177643457,-91.64260357901618,4.009585683935282,-6.211242948194151,0.2867874015931058
0.7800000000000011,-3.07766649,5.0496028,340.03702990684803,-120.95659356103847,930.382668409871,2.0428239908481935,-1.7981513319169962,0.1891400555646199,-20.875327341068804,-5.95,29.6,998.8013067494692,15.32124235986304,-11.357841804217983,14.72935610393878,-7.411964046412814,-6.768946886746254,-91.6453273410688,3.998690635724791,-6.2439280928256276,0.3058480867926308
0.7966667000000012,-2.34149937,5.83809362,347.75072403987633,-107.65646345808044,933.1091542245466,2.2743437653211473,-2.032394868442573,-0.0260371465925959,-20.878051103121425,-5.95,29.6,1003.0558230756662,19.908057656480143,-34.76312912240729,18.052345808138824,-7.428306618728552,-7.55066659584905,-91.64805110312145,3.9877955875142983,-6.276613237457103,0.3272637286374924
0.8133333,-1.36172701,6.42593833,351.7598741645781,-102.13069319131164,937.538091739766,2.0785600459482003,-2.108402203425229,-0.18,-20.88,-5.954951232247285,29.6,1007.3699910714286,22.28392449874686,-51.26986523600668,14.617253341687496,-7.1825359231411845,-8.518476660401006,-91.64257315162908,3.97009753550543,-6.292573151629072,0.34944202823305703
0.8300000000000001,-0.4055687,6.62093552,347.99769847387086,-113.75051333436105,944.9847957453368,0.9156620934176032,-1.856082935100972,-0.2017357792508096,-20.88086943117003,-5.9717388623400645,29.59913056882997,1011.3995390781564,18.596230923385217,-50.306123015261285,-2.2709896716509808,-6.1461260983505435,-10.210365346076776,-91.61739170648993,3.935652844149838,-6.268261137659935,0.36908400367135885
0.8466667000000001,0.25725789,7.01480166,354.1125043934022,-109.98656767380916,944.3553304300908,0.4403515492523482,-2.0487763989517505,-0.3623136657931255,-20.887292546631723,-5.98458509326345,29.592707453368277,1012.6520465931864,11.697804917527325,-48.57830495606597,3.484121782025622,-4.270576383536293,-13.537539155233562,-91.59812236010482,3.903537266841375,-6.25541490673655,0.39065423152581086
0.8633333000000007,1.12013922,7.04143071,356.89145556373853,-110.77783616215956,944.9371041327694,0.1194569167794107,-2.412368044256449,-0.7817215989861028,-20.89165127511261,-5.9883487248873895,29.59,1012.6565457893024,19.95757358658692,-39.74719302241875,5.649098532207492,-2.542075736037059,-15.49317716272462,-91.59,3.885046174662168,-6.264861476013497,0.4158504523809173
0.8800000000000008,2.00863669,7.34690439,357.2397072978574,-114.88834843372688,946.4014741295152,-0.0889232192097654,-2.900491376505067,-1.3897348724887677,-20.894505797523426,-5.985494202476579,29.59,1011.7516621850754,39.26270865089923,-25.74005155257097,5.198083991299412,-0.9207070066966194,-16.449442170346185,-91.59,3.876482607429736,-6.290552177710793,0.44591006501015157
0.8966667000000008,2.86675719,7.13829637,357.5879590319763,-118.9988607052942,947.8658441262612,-0.2973033551989417,-3.3886147087536855,-1.9977481459914324,-20.897360319934233,-5.982639680065768,29.59,1010.8467785808484,58.56784371521154,-11.732910082723194,4.747069450391332,0.7006617226438201,-17.405707177967745,-91.59,3.867919040197304,-6.3162428794080885,0.48083371703455935
0.9133332999999996,3.63993898,7.26955428,362.48745630010785,-125.34634197762982,946.643861724241,0.0624730278133938,-3.378157378996444,-2.6655285558744684,-20.9,-5.98,29.592483024844103,1008.312852519054,79.38969771354975,8.25192635850576,2.5658108482632977,1.851135009403228,-18.138535484509585,-91.58751697515588,3.856275462733842,-6.333792437889737,0.5156336987255649
0.9299999999999996,4.33268522,7.37287069,397.628797768008,-146.4826750084544,939.2813307406152,9.012044301656925,1.5985322962461417,-4.63280182617514,-20.9,-5.98220324653365,29.61,1005.3226361176866,101.79193946567464,54.68732499154559,-10.16201555630706,-3.698951640175757,-15.686361176868491,-91.56339026039905,3.825593506932702,-6.287796753466351,0.5005783741484582
0.9466666999999998,5.3808252,7.1003915,403.7019696482921,-153.24630030436245,962.329323328824,19.78217819298823,5.2621626648629825,-7.239615742306354,-20.9,-5.9869002085446965,29.61,1024.472150236726,104.88723743095476,47.923699695637566,-10.763226693721103,-10.284092379663978,-12.736669033930829,-91.54929937436592,3.816199582910608,-6.283099791455304,0.44862096887482744
0.9633333000000004,6.3606242,7.24033791,403.3372580867056,-158.639126439229,973.506050444666,30.416225117513378,7.188054932276365,-9.299720556201605,-20.89907180175901,-5.993712792963952,29.61,1037.3587571285848,103.48545632769356,40.67262068231307,-10.401662037112812,-15.252821019702942,-10.117056275283709,-91.53628720703604,3.806287207036048,-6.272574414072096,0.3768774762236577
0.9800000000000004,7.85439209,7.38506001,390.477663986111,-161.37155133727506,961.6427950931094,40.786337193114875,5.741316474769443,-10.298789000442234,-20.89634210655617,-6.004631573775325,29.61,1038.0903154429468,93.35555742994228,32.47534598817479,-8.171501056389877,-17.084446500810763,-8.13802725322235,-91.52536842622467,3.795368426224675,-6.25073685244935,0.31885339934757
0.9966667000000003,9.41303036,7.695389,377.6180698855165,-164.10397623532117,949.7795397415526,51.15644926871638,4.294578017262521,-11.297857444682862,-20.893612411353324,-6.015550354586698,29.61,1038.8218737573086,83.22565853219098,24.27807129403651,-5.941340075666942,-18.91607198191858,-6.158998231160996,-91.51444964541332,3.784449645413302,-6.228899290826604,0.2742182466105871
1.013333300000001,10.84340013,7.97560479,364.7585529423318,-166.83638473885077,937.9163555693852,61.52649912377024,2.84784824016893,-12.296919894524851,-20.89088273252862,-6.0264690698855174,29.61,1039.5534276823296,73.09582041371112,16.08084578344773,-3.711192475883049,-20.747686473295563,-4.1799810832499515,-91.50353093011448,3.7735309301144824,-6.207061860228965,0.24258474297805604
1.0300000000000011,12.05047214,8.11268256,487.8365039734034,-2.923260158943247,915.0908084878512,49.2133427267082,-27.05636786338227,-14.773513498281368,-20.89085019444288,-6.040850194442879,29.62085019444288,1003.6542205376747,116.64708476581988,-53.37663895621139,8.912342332187578,-28.855573747393876,0.2330290818917478,-91.47829961111424,3.706599222228483,-6.245749027785604,0.5075784069734562
1.0466667000000012,13.02181896,8.04301299,567.6427843093104,-109.44905137237936,868.1942860564699,35.752608296228594,-20.24146009693918,-19.930487121682138,-20.89554689173195,-6.045546891731951,29.62554689173195,973.9570035788742,69.17756526517181,-101.4191555261262,12.35032474778809,-36.675574733698326,4.558687285126821,-91.4689062165361,3.687812433072196,-6.222265541340246,0.7006496398819964
1.0633333,13.68716567,7.32565015,643.6716287910295,-208.5437920943621,823.6878698863732,23.266218253506107,-13.86598569265833,-24.4928805170607,-20.90014378878371,-6.050287577567419,29.63014378878371,946.73376436141,23.16247199254696,-147.61949393601617,15.205809728992364,-44.42747227536639,8.858140943951804,-91.45971242243256,3.669568633648871,-6.19985621121629,0.8263680982363566
1.08,14.69921794,6.87655618,650.6450854281388,-171.78549601557177,822.8754552562845,28.592663661015813,-15.524087906969005,-18.184882962617923,-20.902916534961484,-6.055833069922973,29.632916534961485,964.739978039894,3.7338395248632,-160.1439884210351,7.411620223261087,-50.93510755460912,12.678985176928574,-91.45416693007702,3.66125039511554,-6.197083465038514,0.971338989352844
1.0966667,15.60929115,6.58287756,657.6185420652481,-135.02719993678147,822.0630406261957,33.919109068525515,-17.182190121279678,-11.876885408175143,-20.905689281139264,-6.061378562278527,29.635689281139264,982.7461917183784,-15.694792942820555,-172.668482906054,-0.3825692824701878,-57.442742833851845,16.499829409905345,-91.44862143772148,3.652932156582209,-6.194310718860737,1.1360035695980342
1.1133333000000007,16.4685748,6.32297249,664.5919568617015,-98.2691244073252,821.250630870585,39.24552251742689,-18.840282386997025,-5.568925701641767,-20.9084620106806,-6.066924021361194,29.6384620106806,1000.7522973597972,-35.12330883894336,-185.19290224425671,-8.176712023158242,-63.95033906736123,20.320650717862705,-91.4430759786388,3.644613967958209,-6.191537989319404,1.3209702363190805
1.1300000000000008,17.23496225,5.84650091,645.2516719044601,6.2589362036545,787.4861360779348,38.78289440603358,-27.54470301697129,1.8777482715277625,-20.90416876178504,-6.081662476429919,29.64,979.566200502825,-11.87472501570975,-219.90252514142344,4.5330468258974825,-74.10264927718487,22.300050282840967,-91.41667504714016,3.622506285355121,-6.1491813324952815,1.5981775718521494
1.1466667000000008,17.98565595,5.86868741,653.0214720936839,83.78346321654678,790.9997665501957,31.80530437246165,-39.80475568986735,2.911870809330303,-20.9,-6.097152516762679,29.64715251676268,950.556634243082,12.711066861837775,-265.33097620172066,11.978610161487982,-81.8126671073758,28.10797884597268,-91.39284748323732,3.602847483237321,-6.1092712248559815,1.9983980023013517
1.1633332999999997,18.59818799,6.3141565,688.7607232662818,109.27102666288864,831.0936240752975,25.1527250291184,-49.626229294550754,0.2886139704725554,-20.9,-6.10764554411811,29.65764554411811,940.6931885289767,13.094062360311009,-302.8592885384196,5.037472565870383,-86.26171070607855,36.77521944155867,-91.38235445588188,3.5923544558818903,-6.093531683822835,2.49401806534631
1.1799999999999995,19.17619121,6.83248094,700.3074954009305,116.07179634238716,833.0886327237314,22.96289416729793,-55.08471485769931,-2.0928909208959676,-20.9,-6.1146629152689105,29.66,944.1710880857048,2.480940915485572,-327.33208581322333,5.398789633156543,-89.00859322584132,39.34483064603396,-91.37533708473109,3.5830056270966346,-6.078342711827724,3.041532561467774
1.1966666999999998,19.66402512,7.32987695,704.8554730909352,117.46654957977128,824.0618138188509,22.064119990621517,-59.280998304656734,-4.404453937164058,-20.9,-6.120674782671428,29.66,951.508572250478,-11.313288839591497,-348.0279393463908,7.872673069292613,-91.26304350178548,40.15042087797135,-91.36932521732857,3.573987825992858,-6.06331304332143,3.6282198297079122
1.2133333000000004,19.8774022,7.63197658,709.4034234931286,118.86129444865276,815.0350490747752,21.165351206579352,-63.47725657396398,-6.716003084081873,-20.9,-6.126686614002813,29.66,958.846012390434,-25.107435829456072,-368.7236687046862,10.346541662157843,-93.51748025105516,40.95600627637704,-91.3633133859972,3.564970078995779,-6.0482834649929655,4.253866279501837
1.2300000000000004,19.98591962,7.8361932,657.8984028258731,102.80578127164333,841.6824844161259,17.224325391328243,-75.39643717966533,-8.1454439673085,-20.90518146557695,-6.13518146557695,29.66518146557695,951.5063201274407,5.109517246158134,-410.36385164150335,8.704749965368995,-97.76006856905406,44.653960382324605,-91.36,3.56,-6.04518146557695,4.996035359923899
1.2466667000000005,20.11495647,7.99254682,596.7066801895085,95.76813427331308,907.9438331016498,12.593115662855622,-85.77341195494914,-8.174306675366672,-20.90724539703254,-6.14,29.672754602967466,933.9921735368376,11.296067576383912,-432.76144423955265,4.802649607081005,-98.9716124996453,46.925238786915905,-91.35724539703254,3.56,-6.025208573292858,5.840853816044743
1.263333300000001,20.05261784,7.98634509,577.8882547022598,110.54390805413018,971.2030578739864,10.14388340094738,-88.25101370251654,-7.97572027575249,-20.90251714942268,-6.14,29.677482850577324,922.100630798036,-38.4545537745785,-422.94560220148026,2.9018940679166927,-96.26232661919468,45.629698941813864,-91.35251714942268,3.56,-5.982654344804105,6.710108060720997
1.2800000000000011,19.99787456,7.98379608,552.1387073879699,110.39944278757098,1002.0788795349008,9.638848956170609,-88.01790856581952,-7.91413530144589,-20.9,-6.138528823285137,29.682942353429727,920.1158560157052,-57.68415644229569,-427.4179969043769,4.383644531692783,-94.15502812488192,44.47363698138843,-91.35,3.56,-5.952644116425685,7.576741274074428
1.2966667000000012,19.85906457,7.99884935,518.4988902752061,93.26965655555009,996.0889597946313,11.347108629997484,-84.69891417192017,-8.008514288950137,-20.9,-6.135382857034995,29.68923428593001,929.4090403186236,-42.16825089659743,-448.1562064253102,9.716057325682756,-92.73305137981792,43.47636568009355,-91.35,3.56,-5.936914285174977,8.409894376411152
1.3133333,19.08094598,7.89991106,484.8592750009436,76.13997310204225,990.0990759938088,13.055358054286696,-81.37993969194757,-8.102892710181585,-20.9,-6.132236909660613,29.695526180678772,938.7021688625468,-26.65243844614735,-468.8942915172337,15.048438125259578,-91.31108316659744,42.479100362414584,-91.35,3.56,-5.921184548303069,9.20951192250878
1.33,19.05819703,7.94045146,480.6933071359422,92.48737399624198,949.4134973517844,13.817445754314017,-76.8971091747821,-6.765710461871368,-20.89451449399168,-6.13,29.705485506008316,930.4442787174664,-21.11099151432328,-470.78471666951384,13.121359986331647,-88.96427928697531,39.21101144712107,-91.35822825901246,3.5737137650207873,-5.907257246995843,9.965753035993018
1.3466667,18.87326382,8.02552598,525.0319573670322,157.96595445077054,862.3148004443829,12.892441327593394,-70.9541601721983,-4.279255270101399,-20.881089765310374,-6.132179530620747,29.722179530620743,889.6736893209277,-33.565086849048704,-447.83765649215405,-0.2631062074711492,-84.81210306901819,32.39314009165393,-91.38108976531036,3.6056409387585058,-5.873845632551034,10.665640807078889
1.3633333000000007,18.66564634,8.18410892,491.3562137203152,115.4720263852225,901.7536094986824,14.049683377308757,-69.57009868073874,-9.500731398417102,-20.885718733509236,-6.14143746701847,29.73143746701847,883.5727092348283,-24.751531398416525,-494.84945751979086,7.157129815303739,-82.18747810026375,32.19409445910289,-91.38571873350924,3.58712506596306,-5.76275039577836,11.344820516999006
1.3800000000000008,18.62667033,8.45912475,461.4086471003003,76.54711175744777,933.6905896351112,15.133517539220875,-67.8880601092894,-14.168617133791557,-20.88889652741054,-6.148896527410541,29.74,877.0006002115277,-16.229509078088988,-537.3263916798867,13.404538163228986,-79.35447382337365,31.93937775427459,-91.39275868147364,3.57,-5.663586285915743,12.00064725337631
1.3966667000000008,18.23112164,8.32879228,477.36511006081514,81.56724636435771,873.2616833024827,15.31346384188261,-62.53741188524565,-12.020278622421898,-20.874207033315702,-6.134207033315706,29.74,864.6283738101528,-11.297511435748053,-523.9662968006339,5.211472831834623,-73.9560847435217,30.999250132205137,-91.42948241671074,3.57,-5.711327141723958,12.60552165422818
1.4133332999999997,18.03009771,8.83110268,493.32147728274253,86.58735085051993,812.8331395425712,15.493409064868672,-57.18679576502742,-9.87195300105768,-20.85951762735766,-6.119517627357659,29.74,852.2562216419885,-6.36554338533413,-510.6062820817912,-2.981543341265496,-68.55772805393981,30.0591281508902,-91.46620593160584,3.57,-5.759067711087607,13.159635688197547
1.4299999999999995,18.07911537,8.86184466,508.16948879375457,97.95757239989892,789.9151447997978,12.59053890707644,-54.291382523293855,-7.832268949886708,-20.85,-6.100148577184589,29.742462855703852,827.3423470158658,-16.51867791488229,-499.9674011583985,-6.292624024175361,-59.8190430622012,28.984520271971817,-91.50723998992696,3.5552228657768827,-5.757982875849914,13.687380212700813
1.4466666999999998,17.6578192,8.82900905,520.9776511793837,121.0136637286993,836.0273274573987,4.014456392176779,-55.914262738185144,-5.992538361453909,-20.85,-6.072167883824394,29.7494580290439,779.3484627297919,-54.432517417946045,-494.3362866196593,-0.6195384453958948,-44.93331419457764,27.66243251070262,-91.55620620330733,3.513251825736591,-5.66704562242928,14.233477702982455
1.4633333000000004,17.25099216,9.19551652,507.478439004861,103.04997209036271,831.5496213039746,1.287942321990232,-52.36434921361158,-5.907157249070633,-20.858793422933942,-6.061206577066057,29.754396711466978,787.008689276523,-68.74868927652298,-511.3945149270808,0.4091593365742194,-42.975401801544166,27.370941406920213,-91.61276053760366,3.488016442665141,-5.699570403202746,14.744413849677327
1.4800000000000004,16.92803818,9.05134389,491.76970488990526,81.64110265942185,822.8230763511579,-0.9473114097798648,-48.37997369173568,-5.96911524163569,-20.868325421790107,-6.0516745782098935,29.759162710895055,799.3430957963972,-81.0830957963972,-530.358426651416,1.0478032599371043,-42.1032239062053,27.16600343151272,-91.66995253074064,3.464186445524735,-5.7424643980554775,15.215739193330007
1.4966667000000005,16.19897878,8.97655723,487.0246930300405,78.34031565391805,804.3178173861506,-0.3473465150202531,-43.424428750512696,-4.774411382595575,-20.866868600993755,-6.040605802981264,29.76,743.7137685417313,-120.1003035054942,-539.5018765555913,0.3395734603637422,-38.62758565437378,24.03930918083593,-91.7207081870812,3.447474403975019,-5.784445389068698,15.639686117123519
1.513333300000001,14.86029293,9.65385397,484.6162906960841,78.89873070611299,783.7286365501194,0.8568546519579587,-38.26193857409822,-3.3118957697040563,-20.863069859142087,-6.029209577426265,29.76,673.6003901855267,-164.80389761590305,-546.5523414322838,-0.655696904772824,-34.59712054975586,20.289950973241307,-91.77009183115284,3.4322794365683538,-5.826231549437027,16.01460602054612
1.5300000000000011,13.62086204,9.71818658,482.31010831156846,77.15994238746272,768.3490067598715,1.694887079428435,-32.51654862498023,-0.9766269780300044,-20.86,-6.02,29.761228299277924,631.694330926415,-194.4826570901805,-551.4393224765706,-0.0302596404972577,-29.61792441235151,16.62988247042534,-91.81859809494549,3.41631510216623,-5.864913197111694,16.336015541649157
1.5466667000000012,12.47087592,9.8975966,480.4344964280226,65.74623594254027,774.910447649409,0.9907324473804986,-24.316347864494716,5.034293017361017,-20.86,-6.02,29.767629705023815,708.5880167460496,-160.88167833000216,-547.214394684283,7.4209766477190895,-20.643153556613264,13.345961322783598,-91.86340793516668,3.397110884928559,-5.890518820095255,16.585007909960424
1.5633333,11.40891081,10.38838456,483.0355007887624,70.32557810757321,775.2551343809973,0.6530171015745098,-19.968127046009453,8.603509761562666,-20.86,-6.02,29.77,738.1925977110818,-144.62881924781203,-546.1140065110577,11.260924258714075,-16.124128673773892,11.139767922992666,-91.88949104227164,3.388945439747596,-5.90527280126202,16.796169684745475
1.58,10.84277433,10.62217892,488.2688074113522,84.30897340313305,771.9443352792822,0.5307670588708129,-17.884852345688923,10.73702420546006,-20.86,-6.02,29.77,739.9911805311335,-138.5766048049194,-546.8508560835184,12.977448830923516,-14.225066366568518,9.567263949036896,-91.9045629653447,3.3872707816283674,-5.913646091858164,16.989806739312794
1.5966667,10.39556447,10.97472436,493.5021140339419,98.2923686986929,768.633536177567,0.408517016167116,-15.80157764536839,12.870538649357457,-20.86,-6.02,29.77,741.7897633511851,-132.52439036202682,-547.587705655979,14.69397340313296,-12.326004059363148,7.994759975081123,-91.91963488841776,3.3855961235091385,-5.922019382454307,17.16588671704925
1.6133333000000007,10.10746677,11.38758343,498.73538925675496,112.27568009404928,765.3227569406066,0.2862677069622039,-13.718315444670983,15.004040292193864,-20.86,-6.02,29.77,743.5883353797615,-126.472212232348,-548.3245508073511,16.41048767621563,-10.426953146508758,6.422265436130267,-91.93470672105946,3.3839214754378384,-5.930392622810809,17.324365964759952
1.6300000000000008,9.82695009,11.81421951,503.9686958793447,126.25907538960914,762.0119578388914,0.164017664258507,-11.63504074435045,17.13755473609126,-20.86,-6.02,29.77,745.3869181998132,-120.4199977894554,-549.0614003798117,18.12701224842507,-8.527890839303385,4.849761462174495,-91.94977864413252,3.3822468173186095,-5.938765913406952,17.465189199154416
1.6466667000000008,9.91361667,12.32730514,509.2020025019345,140.24247068516897,758.7011587371762,0.0417676215548102,-9.551766044029916,19.271069179988658,-20.86,-6.02,29.77,747.1855010198648,-114.3677833465628,-549.7982499522724,19.84353682063451,-6.628828532098012,3.277257488218723,-91.96485056720556,3.3805721591993807,-5.947139204003095,17.588289842106292
1.6633332999999997,9.55495068,12.47268977,512.8081371113149,67.12688858446566,751.3420691801725,1.230324506179686,23.269350987640628,16.04083215649143,-20.870444030339353,-5.979555969660647,29.780222015169677,755.3466868056045,-112.30553465555964,-550.2489397141331,9.23258964311975,17.65801889662257,-9.8365393293512,-92.19310821237548,3.3197779848303233,-6.425994409581272,17.381759776096125
1.6799999999999995,9.22407582,12.56515476,510.63575984366975,68.32891495512554,755.9599097810502,0.953880825031652,23.822238349936697,16.194163267087706,-20.87156323552619,-5.978436764473813,29.780781617763093,755.8928589367796,-114.76442845103423,-548.9103703106796,9.440761807870905,18.207548643358137,-10.1806949243027,-92.20094264868332,3.319218382236906,-6.4411036796035335,17.169807185626993
1.6966666999999998,9.19328346,12.61288514,508.4633825760247,69.5309413257854,760.5777503819279,0.6774371438836178,24.37512571223277,16.347494377683986,-20.872682440713024,-5.977317559286979,29.781341220356513,756.4390310679546,-117.22332224650889,-547.5718009072259,9.648933972622054,18.7570783900937,-10.5248505192542,-92.20877708499115,3.318658779643489,-6.456212949625794,16.952419297767396
1.7133333000000004,9.39699191,12.67747606,506.29101834261706,70.73296048430153,765.1955632758176,0.400995121394343,24.928009757211314,16.500824568295446,-20.87380163918464,-5.976198360815362,29.78190081959232,756.9851999221034,-119.68220128865032,-546.2332395351726,9.857104888342722,19.3066048396574,-10.869004049276272,-92.21661147429246,3.318099180407681,-6.471322128992617,16.729583237542595
1.7300000000000004,9.44118373,12.782802,504.118641074972,71.9349868549614,769.8134038766952,0.1245514402463088,25.480897119507382,16.654155678891723,-20.874920844371474,-5.975079155628528,29.782460422185736,757.5313720532786,-122.14109508412494,-544.894670131719,10.065277053093872,19.856134586392965,-11.213159644227773,-92.22444591060032,3.3175395778142636,-6.486431399014878,16.50128594469033
1.7466667000000005,9.66502208,13.12392479,501.9462638073269,73.13701322562127,774.4312444775729,-0.1518922409017256,26.03378448180345,16.807486789488003,-20.87604004955831,-5.973959950441694,29.783020024779155,758.0775441844536,-124.59998887959956,-543.5561007282653,10.273449217845023,20.405664333128534,-11.557315239179273,-92.23228034690814,3.316979975220846,-6.501540669037139,16.267514279830273
1.763333300000001,9.84785218,13.3095599,499.77389957391927,74.33903238413738,779.0490573714626,-0.4283342633910003,26.586668526782,16.960816980099462,-20.877159248029923,-5.972840751970077,29.78357962401496,758.6237130386024,-127.058867921741,-542.217539356212,10.481620133565691,20.95519078269223,-11.901468769201346,-92.24011473620946,3.3164203759850386,-6.516649848403961,16.0282550361073
1.7800000000000011,9.84305611,13.28397031,497.6015223062742,75.54105875479726,783.6668979723403,-0.7047779445390348,27.139555889078068,17.11414809069574,-20.87827845321676,-5.971721546783243,29.784139226608374,759.1698851697776,-129.51776171721562,-540.8789699527583,10.689792298316844,21.5047205294278,-12.245624364152846,-92.2479491725173,3.315860773391621,-6.531759118426223,15.78349485582813
1.7966667000000012,9.82558964,13.10111987,495.42914503862914,76.74308512545713,788.284738573218,-0.9812216256870688,27.692443251374137,17.26747920129202,-20.87939765840359,-5.9706023415964085,29.7846988292018,759.7160573009526,-131.97665551269023,-539.5404005493048,10.897964463067996,22.05425027616337,-12.589779959104346,-92.25578360882514,3.3153011707982043,-6.546868388448484,15.533220336721085
1.8133333,9.81731167,13.06211366,493.25678080522175,77.94510428397312,792.9025514671072,-1.2576636481763142,28.245327296352627,17.42080939190346,-20.880516856875207,-5.969483143124792,29.785258428437604,760.2622261551014,-134.43553455483143,-538.2018391772515,11.10613537878864,22.603776725727005,-12.933933489126382,-92.26361799812643,3.314741571562396,-6.561977567815305,15.277418043512823
1.83,9.4661084,12.75170589,491.0844035375767,79.147130654633,797.5203920679849,-1.5341073293243486,28.798214658648696,17.574140502499738,-20.881636062062043,-5.9683639379379585,29.78581803103102,760.8083982862764,-136.89442835030604,-536.8632697737979,11.314307543539792,23.15330647246257,-13.278089084077882,-92.2714524344343,3.314181968968979,-6.577086837837566,15.01607442430858
1.8466667,9.39415477,12.72289566,488.9120262699316,80.34915702529287,802.1382326688625,-1.8105510104723823,29.351102020944765,17.727471613096018,-20.88275526724888,-5.967244732751124,29.786377633624436,761.3545704174514,-139.35332214578068,-535.5247003703442,11.522479708290945,23.702836219198137,-13.622244679029382,-92.27928687074213,3.313622366375562,-6.592196107859827,14.749175916835934
1.8633333000000007,9.37134883,12.7327366,486.739662036524,81.55117618380899,806.7560455627522,-2.086993032961657,29.903986065923313,17.880801803707477,-20.883874465720492,-5.966125534279508,29.786937232860247,761.9007392716004,-141.8122011879221,-534.186138998291,11.730650624011613,24.252362668761837,-13.966398209051455,-92.28712126004343,3.313062767139754,-6.60730528722665,14.476708959834994
1.8800000000000008,9.16986966,12.75202098,484.5672847688789,82.75320255446886,811.3738861636299,-2.3634367141096915,30.45687342821938,18.03413291430375,-20.884993670907328,-5.965006329092674,29.787496835453663,762.4469114027754,-144.27109498339672,-532.8475695948373,11.938822788762764,24.80189241549741,-14.310553804002955,-92.29495569635128,3.3125031645463365,-6.62241455724891,14.198659909050258
1.8966667000000008,9.16730351,12.74334328,482.39490750123383,83.95522892512874,815.9917267645076,-2.639880395257726,31.00976079051545,18.18746402490003,-20.886112876094163,-5.963887123905839,29.78805643804708,762.9930835339504,-146.72998877887136,-531.5090001913836,12.146994953513914,25.35142216223297,-14.654709398954456,-92.30279013265913,3.3119435619529196,-6.637523827271171,13.915015143355305
1.9133332999999997,8.7128833,12.75561242,480.2225432678264,85.15724808364472,820.6095396583968,-2.9163224177469713,31.56264483549394,18.340794215511476,-20.887232074565777,-5.962767925434223,29.78861603728289,763.5392523880993,-149.18886782101254,-530.1704388193305,12.35516586923456,25.90094861179661,-14.998862928976491,-92.31062452196043,3.3113839627171116,-6.652633006637993,13.625761075839028
1.9299999999999995,8.79064099,12.67612824,478.0501660001814,86.3592744543046,825.2273802592745,-3.1927660988950057,32.11553219779001,18.494125326107756,-20.888351279752612,-5.961648720247388,29.789175639876305,764.0854245192743,-151.64776161648717,-528.8318694158768,12.563338033985712,26.450478358532177,-15.343018523927991,-92.31845895826828,3.310824360123694,-6.667742276660253,13.330884069281801
1.9466667,8.49366884,12.59181753,475.8777887325363,87.56130082496446,829.8452208601522,-3.46920978004304,32.66841956008608,18.647456436704033,-20.889470484939444,-5.960529515060554,29.78973524246972,764.6315966504494,-154.10665541196178,-527.4933000124232,12.771510198736864,27.000008105267742,-15.687174118879494,-92.32629339457613,3.3102647575302773,-6.682851546682515,13.030370542058453
1.9633333000000004,8.67707196,12.48858364,3850.197708482052,-3885.224911779693,3938.319035696067,23.96552405235235,45.14905932347338,64.22781285058618,-21.11357504674486,-5.76,29.68134064252932,1539.2300972293017,-1896.773327383969,-2659.024894271614,136.68879296277265,-136.1467256501776,42.18673652898178,-93.49357504674484,4.39323780384158,-8.151172021077683,12.660793136547886
1.9800000000000004,8.98900635,12.36321149,3292.0096593374574,-3457.211137174899,3708.7488292287785,-45.82360540340762,6.8098666146713,54.52386087530344,-21.126906940236573,-5.76,29.686340102588716,1429.7052592214825,-1201.3734304226336,-2057.568184799655,83.87949635539941,-103.3552671206158,41.01852936177017,-93.50690694023658,4.479895111537734,-8.192834188239296,12.657563437028374
1.9966667000000005,9.8044123,12.65226984,2733.8216101928624,-3029.197362570105,3479.17862276149,-115.61273485916756,-31.529326094130777,44.81990890002071,-21.14023883372829,-5.76,29.69133956264811,1320.1804212136633,-505.9735334612986,-1456.111475327696,31.070199748026155,-70.56380859105401,39.850322194558565,-93.52023883372829,4.566552419233886,-8.234496355400907,13.01709805132753
2.013333300000001,9.81189321,12.64553185,2175.636910169844,-2601.186156042807,3249.609793712676,-185.4014455809908,-69.86828876823807,35.116015148333034,-21.153570647228808,-5.76,29.696338992710803,1210.6562403535536,189.42219110902488,-854.6583745887544,-21.73878000420308,-37.772546809848706,38.6821220365759,-93.5335706472288,4.6532092069872375,-8.276158272590019,13.740091103746057
2.030000000000001,10.43456922,12.22011701,1617.4488610252488,-2173.172381438013,3020.0395872453873,-255.19057503675077,-108.20748147704016,25.4120631730503,-21.16690254072052,-5.76,29.70133845277019,1101.1314023457344,884.8220880703602,-253.2016651167955,-74.54807661157633,-4.981088280286912,37.51391486936429,-93.54690254072052,4.73986651468339,-8.31782043975163,14.830263634356584
2.046666700000001,10.43437143,12.21450335,1059.2608118806538,-1745.1586068332183,2790.469380778098,-324.97970449251073,-146.54667418584222,15.708111197767572,-21.18023443421224,-5.76,29.70633791282959,991.6065643379152,1580.2219850316956,348.25504435516314,-127.35737321894962,27.81037024927488,36.34570770215268,-93.56023443421223,4.826523822379544,-8.359482606913243,16.29225999366919
2.0633333,10.47900818,12.07223029,328.4332384722061,-144.38522269733133,928.5396259678712,-9.447687044955476,8.127599849763204,-1.3372043799838722,-21.231490754651567,-5.283126603490128,29.867163584883855,778.5252172079036,-5.70937576563248,-289.7663101236566,-6.2351361955394475,-1.8721527215995692,6.714665722870694,-93.57560834392696,6.137066855425861,-8.084359412920378,16.212231225123592
2.08,9.57998992,11.16393129,338.1608927821632,-46.955724827846694,1050.2108447052403,-12.63824382767888,-4.150290246053078,4.206352137218677,-21.003647862781325,-4.236801624958015,29.783664238327173,913.9580083767216,209.50378715989297,-278.74725100772616,27.574575600436777,11.570203854551554,5.324767068357405,-93.9845914511253,6.421727935001679,-7.809808007222035,16.25271358893177
2.0966667,9.60342566,11.07998724,342.8163858015619,-63.22808130038624,1031.6291117631006,-11.710994184581798,-3.6061871535942247,4.173111112277461,-21.03688888772254,-3.843157908548876,29.72592982658717,919.6807132494962,156.41262174588533,-247.0108198270072,16.04343900109175,12.57443271330198,5.550456132431977,-94.11755555089016,6.437473683658045,-7.808058479593551,16.287638625942133
2.1133333000000007,9.55052534,10.85776161,347.4718508880586,-79.5003401389828,1013.0474903111348,-10.783750104971414,-3.0620873257473766,4.139870286781994,-21.070129713218005,-3.4495165539972983,29.668195761252935,925.4033837861105,103.32177487823118,-215.2745790644933,4.512371588427527,13.578655546691335,5.776143842374882,-94.25051885287202,6.453219337840108,-7.80630896246221,16.31696590854193
2.130000000000001,9.01171817,10.13108599,352.1273439074574,-95.77269661152232,994.4657573689948,-9.856500461874331,-2.517984233288523,4.106629261840777,-21.103370738159224,-3.0558728375881596,29.61046134951293,931.126088658885,50.23060946422356,-183.53814788377431,-7.018765010917502,14.58288440544176,6.001832906449454,-94.3834829526369,6.468965086496474,-7.804559434833725,16.340718809367914
2.146666700000001,8.79115183,9.86957727,356.7828369268561,-112.04505308406188,975.884024426855,-8.929250818777252,-1.9738811408296697,4.073388236899562,-21.13661176310044,-2.6622291211790214,29.552726937772924,936.8487935316596,-2.8605559497840716,-151.80171670305532,-18.549901610262527,15.587113264192183,6.227521970524028,-94.51644705240176,6.484710835152839,-7.80280990720524,16.358924677324023
2.1633332999999997,8.7907537,9.77205429,361.43830201335226,-128.3173119226567,957.3024029748912,-8.002006739166966,-1.4297813129828798,4.0401474114040985,-21.1698525885959,-2.268587766627485,29.494992872438697,942.5714640682731,-55.95140281743258,-120.0654759405448,-30.08096902292552,16.591336097581436,6.453209680466908,-94.6494103543836,6.5004564893349,-7.8010603900739,16.37160621008485
2.1799999999999997,8.73811069,9.29486336,380.09653785007146,-148.57231502996996,999.8477363336316,-7.193003546532937,2.6325021401493953,0.5117133423016231,-22.67051608169253,0.1457991928579655,29.716164852635423,1008.3951290204212,-42.56393298276318,-127.32425461660156,21.25673474379153,7.9973559985331235,6.838351473645715,-97.11248012718592,6.009483918307474,-8.379118258530012,16.34577314944011
2.1966667,8.74453925,9.28992824,355.9522068592546,-105.4800899394594,923.7920864242042,-7.135877807321951,0.691396893355587,0.3577525650847986,-23.020545059864492,0.713337554644186,29.66582456772876,1011.1540234650804,-16.644749440413047,-167.63738996800203,26.922904141692,4.755837231661316,6.609547463457856,-98.1788160650172,5.680864497423652,-8.37506654949149,16.33959696708641
2.2133333000000004,8.84258387,9.16774429,356.80848357294155,-110.06442521069008,925.7475019604308,-6.920556762359723,-0.2074432827076675,0.4954578845373864,-23.243377304069583,1.0212967236017914,29.520608049033303,1000.2127099013022,-32.96408166208518,-172.95531903195288,19.33659290639489,5.534498219838676,7.205435936725418,-98.79723813601336,5.483069584028117,-8.287435891658026,16.34228427252524
2.2300000000000004,8.96156086,9.16125701,357.6647654243094,-114.64878798804229,927.7029292291976,-6.705234425466065,-1.106288851833518,0.6331640302251909,-23.46621088527349,1.3292577403217902,29.375390659035254,989.2713306893804,-49.2835118001417,-178.27328000360555,11.75023615304858,6.313163880000625,7.801327985338099,-99.41566391755676,5.285273483858362,-8.199804708038515,16.353829733607622
2.2466667000000005,8.98009924,9.13899675,358.5210472756772,-119.23315076539444,929.6583564979644,-6.4899120885724075,-2.005134420959368,0.7708701759129952,-23.68904446647739,1.637218757041789,29.23017326903721,978.3299514774584,-65.60294193819823,-183.59124097525824,4.163879399702267,7.091829540162573,8.397220033950779,-100.03408969910018,5.087477383688607,-8.112173524419003,16.374228058349427
2.263333300000001,9.02564986,8.80173764,357.9423204553819,-119.16139802994962,936.3013980299496,-2.084453878728387,-0.7058519086780117,1.124148091321988,-25.777990395237577,3.0422704062845476,28.490742481895165,992.042482171352,-59.33325546213481,-132.4711135080381,2.891527924389381,5.578909782742,7.3913960046644,-104.02052261568689,3.5537124094758332,-8.42799140788019,16.381417692697525
2.280000000000001,9.02470813,8.79839824,350.95098042224083,-118.4095860439425,935.5495860439424,-2.396430281085083,-0.2660163250275882,1.5639836749724116,-26.78552074383215,3.4309623174174804,28.347540198846193,1000.0362381858358,-82.05638916165611,-107.25216858966324,3.4234221185712888,3.860482386154298,8.981964219958373,-105.64177703449134,2.8377009942309575,-8.26433165582422,16.38389708993456
2.296666700000001,9.08875311,8.74866343,351.31572595318926,-120.10954611793592,933.5242987588226,-2.2516501760591177,-0.151930691649542,1.546798687124563,-27.575899319662906,3.6930445485397585,28.285808581489093,996.7987873906596,-89.03766504150528,-102.56089917626664,3.1458746076509576,2.8358746076509576,9.164084173796628,-106.77781350477198,2.317945557095712,-8.213547854627727,16.385237969176416
2.3133333,9.27011246,8.65769541,355.3361252967513,-123.02792054235776,930.866161544222,-1.8798827334576096,-0.1997293628411645,1.3024943677007148,-28.258358125009963,3.892205678504852,28.264564727626148,987.9799325558052,-88.19587733218616,-108.07102377196756,2.4660712840367713,2.1560712840367717,8.646265235887384,-107.67271084874848,1.8957239615697137,-8.218858818093464,16.38721980517034
2.33,9.98491379,8.29399671,359.35654876280614,-125.9463124770964,928.208008380734,-1.5081130602424977,-0.2475283208259646,1.0581885824450696,-28.940821025126276,4.091368003441519,28.24332074629957,979.1610248076096,-87.35408457212051,-113.58118142854867,1.7862638815862808,1.4762638815862807,8.12844319105205,-108.56761356213056,1.4734998327039792,-8.224169813425108,16.389844619729317
2.3466667,10.13935976,8.22507779,363.37697222886095,-128.86470441183502,925.5498552172456,-1.1363433870273851,-0.2953272788107647,0.8138827971894246,-29.62328392524259,4.290530328378186,28.222076764972993,970.342117059414,-86.51229181205487,-119.09133908512982,1.1064564791357898,0.7964564791357898,7.610621146216714,-109.46251627551266,1.0512757038382443,-8.229480808756753,16.39311402705354
2.3633333000000007,10.40152131,8.15728265,359.1198332285941,-119.054210683425,905.0354996072274,0.0417948153967197,-0.4398796543598318,-0.6225581304006158,-33.179206598586056,4.955729143754917,28.232528043990573,970.9960029065204,-87.76865687352743,-144.53549960722745,6.236654045561869,-1.1972476040848363,8.88708342498033,-113.4845992144541,-0.7546593872741785,-7.654495208169672,16.398858786247096
2.380000000000001,10.43579901,8.1322536,364.1255166273896,-119.58663733961772,916.8623540193772,0.6004063891071203,-1.9586048703849832,-0.2516051322335529,-34.48845247446981,5.182665095574768,28.2412563498298,977.9219135899452,-97.4658046609064,-156.36235401937734,12.19808693375255,-1.1186928515318113,7.97933961770093,-114.916041372087,-1.4267389368945045,-7.497385703063623,16.41950500070509
2.396666700000001,10.54995192,8.13529081,369.1312000261851,-120.11906399581044,928.6892084315272,1.1590179628175208,-3.477330086410135,0.1193478659335098,-35.79769835035356,5.409601047394618,28.249984655669024,984.8478242733704,-107.1629524482854,-168.18920843152722,18.159519821943235,-1.0401380989787865,7.071595810421529,-116.3474835297199,-2.09881848651483,-7.340276197957572,16.455052271176747
2.4133332999999997,10.88525823,8.50989155,368.9093345298464,-119.1151832943992,929.6358216815756,1.4886192999449157,-2.7469261770459577,0.12,-36.61838844890128,5.5616704461284225,28.21840199038991,986.7906383871764,-107.2558352230642,-172.2987824435454,14.855368791901766,-1.6561611873967168,7.474454523009127,-117.3232186959907,-2.5455319355022414,-7.257845175013771,16.483313828850427
2.4299999999999997,10.97144991,8.47004297,368.6782614475909,-118.1085909634779,930.563279395286,1.8178193075418227,-2.0125569293297803,0.12,-37.43822308320512,5.713608911173148,28.186748143505593,988.7246884318082,-107.33180445558658,-176.39479023037617,11.534880253736809,-2.2734112016409176,7.8796237631283965,-118.2981571800277,-2.991851176571125,-7.1755451731145445,16.504250665696915
2.4466667,11.44098572,8.68492638,368.44718836533536,-117.10199863255656,931.4907371089968,2.1470193151387296,-1.2781876816136033,0.12,-38.258057717508954,5.865547376217875,28.155094296621275,990.65873847644,-107.40777368810896,-180.49079801720688,8.214391715571853,-2.8906612158851184,8.284793003247668,-119.2730956640647,-3.4381704176400083,-7.093245171215318,16.517862801280103
2.4633333000000004,11.47603137,8.63299113,361.83804370686823,-118.74914651111833,932.236409847738,3.1123175594259935,-0.6056945448570485,0.5570109267170681,-41.014996385146254,6.520947885858258,28.013587879285794,999.5803224340016,-127.73697209442436,-204.2030179921129,7.034620659436998,-0.354378162997029,7.721784231569715,-122.54015760214702,-4.566780616715968,-6.57488484499945,16.524440859495808
2.4800000000000004,11.70712535,8.78067233,365.0695103516268,-111.61983733158053,939.1466365428854,2.3637857377587728,-0.5783092343082478,1.3648775879066906,-42.00086756490308,6.845007394019068,28.036408971409795,1000.027615839632,-126.50919733815311,-195.50818189286863,9.481041735129864,0.5082591192901946,7.224284423266502,-123.74967548471903,-5.055151988169581,-6.415137200131445,16.530247162133353
2.4966667000000005,11.52866601,8.63289902,368.30097699638526,-104.49052815204271,946.0568632380327,1.6152539160915524,-0.5509239237594471,2.1727442490963127,-42.98673874465991,7.1690669021798765,28.059230063533793,1000.4749092452624,-125.28142258188188,-186.81334579362445,11.927462810822732,1.3708964015774183,6.726784614963288,-124.95919336729108,-5.543523359623194,-6.255389555263441,16.53528288706329
2.513333300000001,11.57508101,8.70959378,369.18367392480616,-103.99122851661774,943.3246900424664,1.299542212530108,-0.806130958041632,2.392758349866383,-43.50849718801755,7.304104691009863,28.028313695912377,990.1761080194782,-113.37876016986586,-165.69945768909002,7.793081031005295,1.8990592893800873,6.981974110085444,-125.5888371509617,-5.7316341471413,-6.049320074111711,16.542725591755737
2.530000000000001,11.58251944,8.90922579,369.9843663611471,-103.72342012494056,940.2558244929412,0.998940956565918,-1.071206611028236,2.592248274278982,-44.0140538457755,7.432543409467289,27.995520831625377,979.5020306940588,-101.10329797176456,-144.15181311383876,3.428897342143374,2.4155469019003775,7.26344619521555,-126.19823787896182,-5.90926216202923,-5.841631933627362,16.552685135050886
2.546666700000001,11.53733186,8.99403757,370.7850587974881,-103.45561173326335,937.1869589434158,0.698339700601728,-1.33628226401484,2.791738198691581,-44.51961050353346,7.560982127924716,27.96272796733837,968.8279533686396,-88.82783577366328,-122.60416853858752,-0.9352863467185468,2.9320345144206676,7.544918280345655,-126.80763860696196,-6.08689017691716,-5.633943793143012,16.56515996677961
2.5633333,11.5464632,9.06103677,346.9964778106513,-118.04792899408255,930.6043653846154,0.436585798816569,-0.923541420118354,3.7178594674556074,-45.64450591715975,7.739023668639052,27.997865384615384,965.4494186390532,-94.01184023668614,-92.45585502958608,-3.416955621301785,-0.0216804733727213,9.39584023668636,-127.96444526627218,-6.579448224852064,-5.254087278106513,16.572744667944825
2.58,11.64003284,9.02925642,330.9512691302724,-128.4999552071669,928.95820268757,0.9557502799552048,-0.7657502799552047,3.93820455393804,-47.06771743187756,7.894811496827174,28.108409854423293,975.5397032474804,-118.89640537513996,-83.02204553938033,5.300462859275818,-4.774160134378497,11.2647499066816,-129.33771743187756,-7.244852556924225,-4.7871556550951855,16.578436359006407
2.5966667,11.886596,8.50857305,354.115016672888,-115.59088372527056,935.2883136431504,1.9044892683837291,-1.7144892683837294,2.7043254323752586,-47.80908177802663,7.967392621624985,28.17062224710713,983.767292179918,-131.5566272863009,-98.46108765708604,18.323590394425835,-5.7851115154908594,10.948503577205424,-130.07908177802662,-7.576651984571359,-4.507199888017916,16.59462929602361
2.6133333000000007,12.09295563,8.53932997,359.98300875389606,-103.48805252337633,938.0019867033624,2.6984628622588045,-1.9529240997413584,2.203945669474095,-48.23215553087075,7.993805060017243,28.184292409974137,987.0719867033624,-134.19866947410296,-109.4950781882092,20.61635468200797,-6.807741163207157,11.639549953577877,-130.48503276079316,-7.767516380396584,-4.359119039724115,16.613624193138865
2.630000000000001,12.47148009,8.37830248,358.0266416871144,-91.74985012268657,939.0796465282845,3.4224292061808192,-1.8700271901319672,2.035388619935,-48.511241793222375,7.999331520657869,28.1760027190132,988.1496465282844,-132.30861993500886,-118.53636779627344,18.05484017507779,-7.835662842363606,12.786290536507783,-130.73924995026195,-7.894624975130983,-4.270695669474098,16.63196396487758
2.646666700000001,12.58415548,8.17407265,356.0702746203328,-80.01164772199681,940.1573063532064,4.146395550102834,-1.7871302805225762,1.866831570395905,-48.790328055573994,8.004857981298494,28.16771302805226,989.2273063532066,-130.41857039591474,-127.57765740433769,15.493325668147609,-8.863584521520053,13.933031119437691,-130.99346713973077,-8.021733569865383,-4.182272299224081,16.649642515909026
2.6633332999999997,12.58627208,7.57743774,355.93412656748114,-74.14361168969103,940.3776880977684,4.451635812964989,-1.686592242295434,1.6644164718384769,-49.12268724760891,7.976736344314564,28.127968331562172,991.2229817215726,-133.38220712008427,-140.1097653560036,13.034848777895869,-9.88775929861848,14.871873326248693,-131.28667141339,-8.206527311370872,-4.1160158342189135,16.66647801958317
2.6799999999999997,12.37627877,6.9757574,362.61945769998493,-115.34593305696272,931.5924596959928,1.5147068939045156,-1.3623534469522578,1.3555062183325648,-49.67876554583141,7.600444035006917,27.781118992783668,989.7719173959778,-154.4351318900667,-161.4184538615082,9.80450237985582,-10.842939659143228,14.182255796100096,-131.6874156302779,-8.809218486104706,-4.377309074159366,16.68010762525655
2.6966667,12.25319986,6.11320101,352.1224818977432,-125.71495937356032,925.2205753109168,0.890313403961323,-1.0501567019806617,1.386214094887148,-49.75553523721787,7.324073146015667,27.545691939198537,972.90305720866,-129.5719878397058,-145.5527176416402,4.466449838784097,-11.779529894058015,14.62240202671579,-131.68229765085215,-9.0651174573929,-4.669033901427906,16.69050609727381
2.7133333000000004,12.23572584,5.326503,345.46591221985557,-131.63893708178617,925.0657962603436,0.3139723861044522,-1.1004271200497675,1.50560049384578,-49.72248493016417,7.130753774527357,27.37075377452736,967.9925173694232,-133.3290992780809,-140.6268365031196,4.339545039865866,-11.945520121388038,14.724786439975116,-131.61075377452735,-9.21981657964677,-4.903869338208964,16.70125804153671
2.7300000000000004,12.56560174,4.57959116,341.93798654176004,-133.94167040506667,929.9759902361792,-0.2232273386990493,-1.4459941944847683,1.6972331442142807,-49.59996569468267,7.005093020187357,27.24509302018736,972.8241733737962,-160.40270880063397,-144.6134239345561,8.458076263359379,-11.483716849188536,14.552002902757616,-131.48509302018735,-9.292071513392267,-5.092360469718964,16.715289268626673
2.7466667000000005,12.99050805,4.20782318,338.41006086366457,-136.24440372834718,934.8861842120144,-0.7604270635025508,-1.7915612689197693,1.8888657945827811,-49.47744645920117,6.879432265847356,27.119432265847355,977.6558293781692,-187.47631832318703,-148.60001136599263,12.57660748685289,-11.021913576989036,14.379219365540116,-131.35943226584735,-9.36432644713777,-5.2808516012289655,16.73259354286714
2.763333300000001,13.34511782,4.21573675,348.77636817364277,-124.40620579188432,931.8199145725716,-0.4701815913178611,-1.2734327084903796,1.533188323370584,-49.06907846323481,6.6576681562300255,26.890551564041527,972.892423480934,-183.5675866751747,-171.5375029888029,12.361829493354495,-10.470244385119797,14.291349776565497,-130.99533631246004,-9.377975335151756,-5.581473100806718,16.745096067410863
2.780000000000001,13.90785749,4.48947438,371.72845333333333,-102.66980843537456,921.6497877551022,0.2822035374148978,-0.2263028571429075,0.8820761904762278,-48.25034965986391,6.31062503401359,26.57909959183673,961.6984628571432,-159.15710285714525,-197.92194258503216,5.808792925169813,-10.47111210884362,13.904332789115571,-130.2876165986394,-9.291218231292511,-6.01906775510206,16.747776357138022
2.796666700000001,14.28241677,4.18345724,372.1728986666667,-109.64487907483034,924.6429910204084,-0.8787965170068716,-1.0834474285714792,1.5169980952381328,-47.59275197278908,6.043050802721073,26.45665036734693,970.555623428572,-200.01432742857384,-166.25294500680084,1.4641130340133488,-11.881545768707566,12.629953823129176,-129.71165172789114,-9.205050258503396,-6.345599020408183,16.758565969194144
2.8133333,14.53323178,3.63263392,372.225958748994,-115.50387933519252,927.515220704112,-1.8924147560313684,-1.7929737408523492,2.0309614441595416,-46.92501959609951,5.789877033071928,26.35281721536993,977.2481557393924,-233.35950886222855,-138.9943822268805,-2.165455613992413,-13.271788654101693,11.542135263620878,-129.13152042898054,-9.099413090269332,-6.644890995526772,16.776066998150057
2.83,14.5866823,2.53850291,369.6368477792959,-113.8287557319059,929.570912425836,-1.9111312208725597,-1.5059879466207513,1.728378595893618,-46.18883864567932,5.633906492728669,26.374653091017983,969.327971700762,-215.99374890041005,-141.50862733721385,-0.9676018641561784,-14.5257917984615,11.713702857998465,-128.5232353216418,-8.862337868947577,-6.760309195380785,16.79089408980638
2.8466667,14.23659461,1.75250128,367.0477368095978,-112.1536321286193,931.6266041475604,-1.9298476857137508,-1.2190021523891532,1.425795747627694,-45.452657695259134,5.477935952385409,26.396488966666045,961.4077876621312,-198.62798893859147,-144.0228724475472,0.2302518856800564,-15.779794942821308,11.88527045237605,-127.9149502143031,-8.625262647625823,-6.875727395234797,16.80305046377657
2.8633333000000007,13.71874691,0.40214431,364.4586413745343,-110.47851857605414,933.682283535159,-1.9485640382563785,-0.9320180800688664,1.1232147148552178,-44.71648116191579,5.321966347863514,26.41832471129911,953.4876511445092,-181.2623331711237,-146.53710247244013,1.4280984484082104,-17.033790563177345,12.056837017350134,-127.3066687566677,-8.388188848752542,-6.9911449025809995,16.812539244127557
2.880000000000001,12.73850661,-1.09004412,324.8683599367091,-113.3665646947784,942.9639494212024,-2.12428032090613,-2.4381828276379434,1.1706432001776723,-41.10035199733491,4.579489492824005,26.669578880159907,987.2714374149836,-219.04830635982628,-196.33584626488997,3.3782086444773487,-18.248534824972857,11.367049385114994,-124.3044765844043,-7.072815145878985,-7.065610026927253,16.836741872631787
2.896666700000001,10.81155004,-2.58191659,358.7541858812445,-114.49547533520256,928.2788577297828,-2.832162812647516,-3.196958831857468,1.309443688754415,-39.018344668683774,4.18159475890401,26.794499319878973,967.7283286233784,-229.32879588041033,-257.4450747022771,6.875980956611257,-16.925303500541244,10.154858451544776,-122.53708369652712,-6.45746631318876,-7.269184076839808,16.86865522445282
2.9133332999999997,9.95881225,-4.04256427,392.63980851122847,-115.62437920217636,913.5938541487384,-3.540041057102397,-3.95573028343002,1.4482433445298817,-36.936349832051775,3.783702412347672,26.919419010076897,948.1853370901928,-239.6092237181799,-318.55393648502263,10.37373228215302,-15.602080115481794,8.942674791105699,-120.76970141298618,-5.842121172584191,-7.472756905310494,16.908122100597073
2.9299999999999997,9.36493539,-5.17657504,385.07737714309985,-123.70226744186031,916.4609001018504,-4.308887497878105,-4.062080079782718,1.6186095314887086,-34.937608852486875,3.361568494313367,26.933236929214058,947.4784202597182,-250.99030915803743,-286.5862372687157,3.584361950433,-14.344127058224432,8.72347054829401,-118.9335598794772,-5.230011245968437,-7.745717407910367,16.94847338713958
2.9466667,8.3484147,-5.66809599,373.6793177940929,-132.42321511627887,920.9522235189272,-5.0833755516890005,-4.108054256492954,1.7918968129349817,-32.94657335342051,2.937191478526575,26.93677340434561,948.5146074732644,-262.47324391020175,-246.00518513410373,-4.156982112544393,-13.092214861653396,8.596157443557972,-117.09105633593622,-4.618201048209146,-8.025098943303338,16.989071489532048
2.9633333000000004,9.8633786,-5.65203139,363.9091975293955,-140.20337298990736,925.1559762060556,-5.677074534530947,-3.978584934467489,1.7716356750540083,-30.939474471080416,2.495564134594405,26.90699101778597,949.6369165625682,-271.3027359665296,-212.1613130489961,-10.990384886879593,-11.840549164237686,8.287447603751486,-115.21165655424024,-4.000352190034294,-8.315614954494086,17.028289091594466
2.9800000000000004,10.72908368,-5.01225922,371.090356512601,-138.1874931096702,926.365504134198,-4.3882332996252265,-2.022190034302908,-0.2640725318740016,-28.76496797731641,1.8742765649475448,26.53025281065968,951.6561011639204,-252.50217754248183,-248.47028394107087,-8.369741042571293,-10.59136458271368,6.089808062181476,-112.94792259036738,-3.319579640314863,-8.722095651656659,17.049480090946993
2.9966667000000005,11.76189862,-4.083702,378.27151549580645,-136.17161322943306,927.57503206234,-3.099392064719506,-0.0657951341383276,-2.299780738802011,-26.590461483552396,1.2529889953006847,26.153514603533395,953.6752857652727,-233.701619118434,-284.7792548331456,-5.749097198262995,-9.342180001189677,3.892168520611466,-110.68418862649452,-2.6388070905954315,-9.128576348819232,17.05267290906324
3.013333300000001,12.81290317,-2.9991768,380.38015627836165,-131.54778608169178,929.773045688352,-1.9661538577912985,1.6751962178516488,-4.485086384266527,-23.49161679273726,0.1695603630857526,25.591742511346247,960.0475360060558,-223.95358048412257,-310.00838169439396,-6.777535854768855,-7.108508472011084,2.066232375189334,-107.33842995461303,-1.6767346444777531,-9.764882299546386,17.040127033597397
3.030000000000001,14.39616717,-2.00822826,360.356004188665,-120.1240027924433,933.7775465770756,-2.4380339456346323,1.527548322352671,-6.052542432043291,-16.260134386316878,-0.5309023081284194,23.601581220821064,972.3935721453804,-260.1785143330854,-263.6720013962216,-21.749838561891472,-0.5879767878178903,2.0248915746758964,-101.2005427810987,0.0147118111610387,-12.177684453946611,17.030186636889365
3.046666700000001,14.7529785,-1.09951522,368.07886967145214,-125.2725797809681,931.1123580653604,-2.5252979623892897,2.080220428465501,-6.161622452986612,-14.034901959073114,2.5051582747940353,22.310800972991757,954.3699166848454,-250.14678840699793,-266.24628989048404,-15.764981412801218,0.542819429294545,0.0323631921112195,-101.95319492560762,-0.0834602076879508,-13.722984750643672,17.014825844592256
3.0633333,14.89855465,-0.50443144,375.80168881713854,-130.42112587809237,928.4471855447446,-2.6125614555608876,2.632889218552288,-6.2707018194511095,-11.809682883197368,5.541200641389211,21.02002846982854,936.3463693660284,-240.1151226711463,-268.8205629390462,-9.780160172782464,1.673608861643168,-1.9601532353069329,-102.70584255421264,-0.1816316375059984,-15.268275775557385,16.994044927522665
3.08,14.77898003,-0.0443545,379.7394962216625,-130.26261964735517,926.2876574307304,-2.3639798488664976,2.8323929471032754,-6.353148614609572,-13.576725440806054,2.0755163727959527,21.702443324937033,953.8591183879092,-250.56755667506303,-227.66836272040285,-17.669899244332534,-0.2354911838791022,-2.13,-102.16042821158688,-0.4582115869017644,-12.193652392947088,16.971357329688775
3.0966667,14.5673975,0.08241708,380.051576892077,-131.7361031944333,924.0765193036189,-2.01272085650573,3.3314448966981125,-6.818133137207503,-14.88191897047366,-0.3628460949464027,22.22854248945488,961.7368185835952,-252.4688359125223,-194.40199134896943,-24.276585677440192,-1.9900521076811617,-1.9835143333064624,-101.7848339915639,-0.6791375970554271,-10.27536017302061,16.944032361497943
3.1133333000000007,14.17697376,0.13459529,375.7327956395581,-136.2183219956478,921.7257052470378,-1.5604690094301397,4.3008758362215325,-7.827863746272312,-15.007295720157982,-0.4904617151608021,22.27331990005642,951.2969653018451,-239.5707027887477,-178.05823647940602,-27.238611388732306,-3.1251594664302935,-1.6297727895542675,-101.82065592004514,-0.7977977351495178,-10.60223527041188,16.90774105466748
3.130000000000001,13.78691657,-0.07636893,371.4139884742482,-140.70056769028255,919.374877085516,-1.1082144488326289,5.270312592353822,-8.837600413744973,-15.132673222105806,-0.6180781010719811,22.318097579323503,940.8570493807256,-226.6724922758652,-161.7143835469217,-30.200654872249665,-4.260273635850779,-1.2760291233443333,-101.8564780634588,-0.9164585852072806,-10.929112329061564,16.86246746156874
3.146666700000001,13.40025171,-0.00276048,367.0951813089383,-145.1828133849173,917.0240489239944,-0.6559598882351176,6.239749348486109,-9.847337081217637,-15.258050724053632,-0.7456944869831599,22.362875258590584,930.4171334596056,-213.77428176298272,-145.3705306144374,-33.16269835576703,-5.395387805271264,-0.9222854571343988,-101.89230020687248,-1.0351194352650437,-11.255989387711251,16.808191860346408
3.1633332999999997,13.61618724,0.21296203,362.7764000564199,-149.66503218613136,914.6732348674136,-0.203708041159575,7.209180288009426,-10.857067690282337,-15.38342747373794,-0.8733101071975458,22.40765266919212,919.9772801778568,-200.87614863920945,-129.0267757448757,-36.12472406705883,-6.530495164020275,-0.5685439133822416,-101.9281221353537,-1.1537795733591214,-11.582864485102483,16.74489084139064
3.1799999999999997,13.8865716,0.8923452,343.78217944535083,-130.1216998368678,928.032942903752,2.484388254486127,4.311353996737362,-8.608427406199013,-15.323438825448612,-1.328897226753668,22.52542577487765,944.7148646003265,-188.333181076672,-138.476384991843,-13.932515497553096,-20.723435562805815,-0.6957422512234892,-101.75738009787928,-1.550316476345838,-11.306561174551389,16.70879946598206
3.1966667,14.67961832,1.59642461,333.9354965626868,-134.6466905738819,934.936389082115,3.0477826476821916,3.853435601326024,-9.399731712950382,-15.381355048638662,-1.5549274495951295,22.50938406880061,935.627798584316,-198.05112228954948,-172.73346747459365,-7.399578310961345,-25.559846598010964,-0.8041747187652938,-101.48519573664474,-1.7218477935981735,-11.236326327373517,16.677637224426835
3.2133333000000004,15.06658623,2.42094926,337.52903688658233,-132.3800655806749,937.2596230911364,3.007024156295852,2.9975072822129,-9.57861620292376,-15.40626301559698,-1.6455018748981058,22.49806226563774,941.6532622275964,-198.99083195206785,-184.00998342481415,-8.86235527960441,-26.84373907668065,0.0381674365523845,-101.39688567197436,-1.7558132030867897,-10.984982297157757,16.655076441254714
3.2300000000000004,15.37760354,3.29582229,341.122598771806,-130.11342698766364,939.5828710396174,2.966265420357588,2.141573827509349,-9.757501766208364,-15.431171132003696,-1.7360768436498044,22.486740394543776,947.6787620238032,-199.93054725286672,-195.28656703440063,-10.32514102494434,-28.127639258735975,0.8805146459431804,-101.30857507744145,-1.7897788163686768,-10.733636758871793,16.641111676600797
3.2466667000000005,15.76338626,3.94569067,344.71616065702966,-127.8467883946524,941.9061189880986,2.925506684419324,1.2856403728057986,-9.936387329492968,-15.456079248410411,-1.8266518124015028,22.475418523449815,953.70426182001,-200.8702625536656,-206.5631506439871,-11.787926770284267,-29.4115394407913,1.722861855333976,-101.22026448290852,-1.8237444296505636,-10.48229122058583,16.635737587473955
3.263333300000001,15.48638564,4.41205668,348.3097009809252,-125.58016340144542,944.22935299712,2.8847481930329844,0.4297120536926742,-10.115271819466344,-15.480987215368732,-1.9172262377044789,22.464096720286943,959.7297254632904,-201.809972216184,-217.8396665942076,-13.250703738927337,-30.695431919460987,2.5652040106516543,-101.13195441823812,-1.85770983913918,-10.230947190370072,16.638948936508633
3.280000000000001,15.10359979,4.80048454,325.8033117789172,-154.84389340775434,959.8111908246284,1.7312847564917409,-16.508613824321184,-15.834836810401146,-15.739845148555286,-2.2147786134839977,22.526924752407854,1049.0833669128465,-205.59583738896208,-149.76997481536506,-12.222605928598492,-37.47302930265811,2.707408705714381,-100.50907089133172,-2.402167920225996,-10.697875642378278,16.814435969604553
3.296666700000001,14.13566717,5.13509801,285.50782227818564,-179.08131269781995,987.7809344518956,0.0409615764216377,-32.10723377463254,-24.7912807745981,-15.722828472245856,-2.3736009257053494,22.55528587959024,1139.9297295034598,-137.73900449238943,-81.63520287240507,-17.270886567062895,-39.27112476602128,5.719360412483591,-100.40697083347511,-2.640401388558024,-11.19703148078824,17.150618231693652
3.3133333,12.91672266,5.65385964,285.009808334761,-178.6520898149735,999.3083153589172,-3.9182222888469864,-38.036984838101745,-29.170598637998953,-15.751743018673976,-2.4495984666780877,22.56595181600137,1158.178510664725,-138.13349511735473,-101.84272117526103,-18.219116626691793,-35.79654865513108,7.902379989720735,-100.3384175946548,-2.7395181600137053,-11.281983938667125,17.548433651995456
3.33,11.72917736,6.22204688,292.4456254639941,-173.3054398663697,1007.5579083147736,-8.329743875278396,-42.03923904974017,-32.63747401633259,-15.78981440237565,-2.5090850037119523,22.573090200445435,1161.9547160356349,-152.1342464736451,-139.6618819599109,-18.349987008166295,-31.270812917594657,9.920163325909428,-100.27655159613956,-2.810902004454343,-11.284363400148475,17.988206385254845
3.3466667,10.29307157,6.95972106,299.8814425932272,-167.95878991776596,1015.8075012706298,-12.741265461709808,-46.041493261378584,-36.10434939466623,-15.827885786077324,-2.568571540745817,22.580228584889497,1165.7309214065444,-166.13499782993554,-177.48104274456074,-18.480857389640796,-26.745077180058228,11.93794666209812,-100.21468559762435,-2.8822858488949805,-11.286742861629833,18.470073405399486
3.3633333000000007,9.24818015,7.71836736,307.317215107647,-162.6121720489975,1024.0570447290277,-17.152760579064797,-50.043723459539905,-39.57120397178932,-15.865956941351154,-2.6280577208611757,22.58736692650334,1169.5071041202675,-180.13566518188634,-215.29997661470108,-18.611726985894588,-22.21936859688175,13.955717891611082,-100.15281997030438,-2.953669265033411,-11.289122308834449,18.99421762751415
3.380000000000001,8.35644943,8.48339483,356.4392116436977,-96.9315013283084,1012.156497127676,-1.4753061919576775,-92.71713721305176,-43.13144842306029,-15.917183987647876,-2.7736279830158277,22.55570400308803,1210.073611407546,-70.18560931858936,-521.5057805226907,-14.216025975795487,-31.082496537317443,7.147503462682556,-99.8720760200722,-3.316587952135515,-11.34073999227992,19.94687122050058
3.396666700000001,7.90678258,9.28944944,406.33221425490103,-113.2837210099687,999.5886374741712,-5.906791784927874,-99.5479070638726,-42.09453377534565,-15.94745886787312,-2.815255943325539,22.54813528303172,1064.4665749642315,-66.95376585454449,-422.1852515837472,-19.177321972707468,-29.7655392475193,8.4644607524807,-99.82287933970618,-3.433903113008338,-11.3596617924207,20.966902976355513
3.4133332999999997,7.12742277,9.93045958,456.22491750868386,-129.635842578506,987.0208532276746,-10.338250789037378,-106.37863593015582,-41.05762534910654,-15.977733566449444,-2.856883653867986,22.54056660838764,918.8604121613988,-63.721941781521835,-322.86531856679244,-24.138588201902653,-28.448589859449186,9.781410140550818,-99.77368295451964,-3.551217569991596,-11.378583479030905,22.054261273909706
3.4299999999999997,6.53878721,10.74660476,391.4411617250687,-170.61153638813937,1052.9290781671143,-11.459652291105105,-88.06302695417827,-37.66981671159036,-15.98977897574124,-2.8722237196765494,22.54488948787062,917.0324447439352,-96.00731805929854,-278.24544474393605,-28.74429649595679,-28.35,10.043797843665766,-99.76266576819408,-3.640676549865227,-11.38,22.955484920496303
3.4466667,6.07893595,11.465581,317.37780340891163,-213.57975297288675,1125.1875599809723,-12.313202964959558,-67.71258194070106,-34.091774567940426,-16.000349262723958,-2.885436578404947,22.550174631361976,926.8390284921516,-131.16673513556324,-238.0519284921521,-33.32123075947354,-28.35,10.220850150626289,-99.75473805295702,-3.727881417472649,-11.38,23.65093881698628
3.4633333000000004,5.59235649,12.04266825,243.31488947201296,-256.5477117488518,1197.4456082448096,-13.166748517520242,-47.36225902964897,-30.513753892500286,-16.01091948628508,-2.8986493578563506,22.55545974314254,936.6455534009834,-166.32594125574866,-197.85865340098184,-37.89813756143981,-28.35,10.397901395275095,-99.74681038528618,-3.8150857618519134,-11.38,24.141036488150945
3.4800000000000004,5.37631515,12.29686532,-424.71587102421734,-37.89606361248891,1229.1575751386042,14.81294426612219,36.553098920338975,-14.102200175080522,-16.155841844178582,-2.8873446162824625,22.538937846512983,997.1175459585638,-28.490277210386363,-69.45914502480316,-23.102748759848367,14.69595564633832,-13.698593522031135,-99.76053107674352,-4.2601809162532875,-11.617084913918886,23.783233803398044
3.4966667000000005,4.85088274,13.12987938,-334.4764142106771,-31.72447262912149,1185.8202644587088,24.27215976072396,57.460640005836666,-26.02713405310805,-16.20933869273417,-2.863027866939013,22.529211146775605,977.406388940764,45.95788257951792,-75.03740732419043,-27.523533790487445,32.60767321272306,-22.47694003501632,-99.7653944266122,-4.444988211263501,-11.865115757222068,23.222107817761273
3.513333300000001,4.39147856,13.51674964,-244.29997531104797,-29.574514021893066,1140.790304621843,32.87037359129647,77.03458616702463,-36.804151879355665,-16.26071925281741,-2.83899304605563,22.519568448309556,959.0174877369556,112.9514847566884,-80.2286548921893,-31.755600628623608,49.71572062080667,-30.86365148850248,-99.77115080450784,-4.624890919158368,-12.10215775845222,22.46813259754196
3.530000000000001,4.04430968,13.7946874,-155.23936681648718,-99.28509575923928,1065.510042016801,26.084700019542176,72.78132597224904,-27.0707817080313,-16.274290599960917,-2.819993160054718,22.51142564002345,964.2533134649212,46.75045339065349,-78.5050938049637,-32.61602403752205,52.46527555208151,-32.25335743599776,-99.79286495993746,-4.717176079734227,-12.142871799882746,21.74993413423835
3.546666700000001,3.73085606,13.91501239,-66.17875832192641,-168.99567749658553,990.2297794117588,19.29902644778788,68.52806577747344,-17.337411536706938,-16.287861947104425,-2.800993274053806,22.503282831737344,969.4891391928868,-19.45057797538142,-76.78153271773812,-33.4764474464205,55.21483048335635,-33.643063383493036,-99.81457911536708,-4.8094612403100845,-12.183585841313272,21.06949780564167
3.5633333,3.49418395,14.32415464,22.88131581004589,-238.70584097127295,914.949968487394,12.513393589994068,64.27483110220828,-7.6040997654874865,-16.30143321282001,-2.7819935020519835,22.49514007230799,974.7249335059604,-85.65121213601789,-75.0579819718585,-34.336865692788756,57.9643689173344,-35.03276099276921,-99.836293140512,-4.90174584717608,-12.224299638460035,20.428236567723793
3.58,3.0993462,14.76706112,191.02093136591637,-155.76310951671482,934.8720955733064,3.4626275890075773,55.64950453499374,13.557639095709115,-16.351600108298364,-2.753359956680655,22.423439826722618,959.9505929335312,-65.08143766075356,-154.4079694057151,6.520427778531058,63.701930418302545,-41.70073507513216,-99.84167997834032,-5.234560714769197,-12.449680519832144,19.86747863809255
3.5966667,2.85734454,14.78888107,257.84201474243616,-63.739684066169175,953.7610314562442,5.778969400874279,57.16484563298193,12.099045941544505,-16.39966495242993,-2.7632216508099767,22.37033504757007,974.0522698208624,-41.62180303419896,-188.62263066769532,9.234355104139851,66.1230413988172,-40.50332450501413,-99.78270617982344,-5.413402074226451,-12.635438158909746,19.29181086894394
3.6133333000000007,2.65685718,14.85865807,305.62141087397674,7.991312876777499,959.4560840547416,9.321711151110094,60.09808342618793,7.246823033627438,-16.44252069940859,-2.777506899802863,22.32747930059141,993.2325974686444,-29.879328362046383,-208.04104579869215,3.1345537841773776,67.86584177594932,-37.94626493528747,-99.7208034341876,-5.546731064826724,-12.792575897831496,18.688438865612042
3.630000000000001,2.22547688,14.98299937,332.48007705465324,7.51213195609151,939.7548534467002,11.23544580434103,57.0435257485426,4.186089974591786,-16.459138947473303,-2.795993158078284,22.285728946975105,979.7917534915382,-30.67449740106628,-216.11371058006895,-3.4042295365098876,65.36891259943192,-37.1093099955162,-99.69857631565836,-5.6271184217081585,-12.760596841423515,18.11762547878494
3.646666700000001,2.0111887,14.91415944,354.9156467774891,-8.233729893552376,914.6843636182462,12.804773220187062,52.72303175183068,1.504117724230576,-16.47021004035405,-2.8153675706195935,22.244212348672303,959.454155869604,-34.12037506019911,-221.78764568145235,-10.03581417207796,61.97562263148264,-36.63602077486422,-99.68473744955745,-5.696312752212834,-12.688634737698653,17.591262857858485
3.6633333,1.7985551,14.80312214,377.3510818871743,-23.979497268213013,889.6140242124321,14.374091220087324,48.4025636780312,-1.1778384343291286,-16.481281066808375,-2.8347418669146585,22.20269599946859,939.116680273013,-37.56623204410708,-227.4615467392928,-16.66735901821733,58.5823530232327,-36.16273439394192,-99.67089866648952,-5.765506667552351,-12.616673065745555,17.108667305260415
3.68,1.64689713,14.06102906,435.94523721692434,-76.94964955425402,886.4374823240071,6.738450660929157,35.17779793011666,5.316672814836825,-16.519027564299616,-2.8572568910749045,22.130087099088023,947.9911363869228,-80.14573111998828,-240.96845783379365,-14.302920381187269,55.31493493185782,-33.97577723127385,-99.70354134644944,-5.972394712572997,-12.57451378214981,16.757015654922473
3.6966667,1.56726627,13.95346679,526.3263266869917,-132.49848441842332,946.8453710169158,-7.103389579904557,21.19460205595864,22.59512467959951,-16.595372554839056,-2.8502657906807336,22.031808272401047,997.8937225534896,-147.46332835981988,-263.37766163019694,5.690162749912043,53.08312826808413,-29.019559506785814,-99.81664924587864,-6.386596983514551,-12.7747887111135,16.541839438309477
3.7133333,1.46699131,13.86139784,555.8615043034838,-107.46913018374076,996.796155572944,-4.333342470927832,26.401930874457097,26.04868990637569,-16.63584402234034,-2.8187879826241797,21.9868399751774,1007.7732574535252,-143.1778496344062,-273.80580975636093,16.32966187302719,51.189962954968536,-26.19555044114071,-99.87510803226938,-6.62043212907752,-13.05359215390012,16.27342965184308
3.73,1.5722658,13.80032065,570.559053727585,-78.91093062029933,999.7902412467232,-1.5586044098131304,28.58293392085469,26.65367178195915,-16.666858688624995,-2.7965706556875016,21.951998196604173,1003.2322190275266,-129.1225516349648,-282.653448399061,21.51630916329232,49.391277859062875,-24.314527374187612,-99.94315032835416,-6.82401442716663,-13.260009016979144,15.982648720105363
3.746666700000001,2.23408857,13.49834351,563.2887453128719,-45.12838208173027,933.2629495049148,1.2230541529144374,26.283316087651777,23.041201844227327,-16.683871890843513,-2.788064054578243,21.93214946068257,977.3409607846464,-100.60275364932374,-289.1609982476439,18.629735853550564,47.73249064275745,-23.82965111095987,-100.02538080574364,-6.982804314539458,-13.359252696587165,15.715428432776857
3.763333300000001,2.41745429,13.92962507,556.0184805199219,-11.346036238045826,866.736056926056,4.00469602572411,23.983712052128183,19.428753581271646,-16.70088499098302,-2.779557504508489,21.912300843853146,951.4498578890042,-72.08312678212732,-295.66850905100597,15.74317986321392,46.07371337915535,-23.344777756983873,-100.10761078975128,-7.141593249174873,-13.458495780734296,15.47197000947544
3.780000000000001,3.15587841,13.93148271,548.7481721052089,22.43651230052322,800.2087651842475,6.786354588451678,21.684094218925267,15.81628364353982,-16.71789819320154,-2.7710509033992303,21.89245210793154,925.558599646124,-43.56332879648626,-302.1760588995888,12.856606553472163,44.41492616284992,-22.85990149375613,-100.18984126714078,-7.3003831365477,-13.557739460342312,15.252404987704955
3.796666700000001,3.93022507,14.15598889,542.6238965579047,-105.42688615991231,853.3798877733973,7.137894585872722,13.665938687701686,29.75285873072825,-16.79890803155253,-2.775938687701687,21.8330715310147,940.6968626747954,-105.23987576192,-259.8284697024019,23.001133381140807,39.117964682681645,-15.88143653639302,-100.55761168877734,-7.912458408031568,-13.815938687701689,15.109580512524042
3.8133333,4.89477303,14.0349412,522.1993508938175,-82.08271892127225,880.1601593505097,2.1694157660195437,13.69154940326794,35.24208876709525,-16.83732410490191,-2.8015494032679404,21.80319236285407,962.8928161655484,-78.97608694872702,-253.7843408287661,31.717313578855748,34.537915048916645,-16.534509783332485,-100.71981288736364,-8.138686395533474,-13.84154940326794,14.964926966868711
3.83,5.58348909,14.21303945,501.7746826819647,-58.738411617066845,906.9405916098964,-2.7990928648261466,13.717160272499104,40.731351738974595,-16.875740408748655,-2.827160272499104,21.773313015417713,985.0889028325566,-52.71214055216901,-247.7401756902115,40.43354607386168,29.95783793474359,-17.18758694872715,-100.882015059161,-8.364915740408751,-13.867160272499104,14.817919936314368
3.8466667,6.3447915,14.45690804,490.28347672099704,17.522950124641163,854.8975298178326,-2.2929422051773627,8.9206166251198,33.25009800575256,-16.894207766059445,-2.8413662128475554,21.76147534036433,965.212550201342,-16.570876740172253,-244.29380251198464,34.41830375838919,27.35293372962606,-15.80228320230104,-100.97956348993289,-8.569017852348995,-14.026285426653883,14.720172380266614
3.8633333000000007,6.71993176,13.96312802,479.9064009395969,100.38295744966808,793.0249744966416,-1.1040687248321617,3.522747516778283,24.151380805368724,-16.91018724832215,-2.8541497986577187,21.75188765100671,940.0896081879184,20.801936375840597,-241.1714116778522,26.565986174496295,24.994362147650904,-14.16278832214758,-101.06904859060404,-8.770359328859069,-14.202059731543631,14.678559723637198
3.880000000000001,7.18658151,14.24480041,469.52926289549333,183.2434619367246,731.1520479386357,0.0848118887824109,-1.8751539789072351,15.052609012463648,-16.92616682646213,-2.8669334611697033,21.74229990412272,914.9665154362406,58.17497372962772,-238.0490021093,18.71362147650972,22.635776414189735,-12.523283604985547,-101.15853422818792,-8.971702013422828,-14.37783509108342,14.693430911704246
3.896666700000001,7.39804125,14.00144106,501.7453303848458,121.04816568749968,844.5273796290253,5.412726318569156,-21.116419037561208,-2.684678196581478,-16.99690184170573,-2.936901841705727,21.706549079147138,957.527462538784,22.42448154993486,-220.3571085880247,-5.147255000331249,24.520279952472244,-1.9358318700898811,-101.51450920852864,-9.429773780447576,-14.336372697867844,14.906321752068129
3.9133333,7.69534169,14.2682133,510.1049319486609,29.816361147015655,916.4756195857994,5.2828006252066775,-13.86736174817425,-3.883636147765234,-17.039848838257836,-2.9926411975111957,21.68720764074664,978.1778807899242,-17.662751931226474,-212.25139351949275,-8.175028194415253,20.71029553037373,-0.0935083110403038,-101.7804136283026,-9.69335714929814,-14.30294352099552,15.047199168978722
3.93,7.97069257,14.61818242,511.94348402416665,-58.48924494273835,971.5119495626552,3.970264811085411,-1.2229327602274012,-1.714445279389249,-17.0749165890168,-3.042737984309717,21.672178604707085,991.263161501698,-54.47387087078013,-206.6255243620188,-6.677134269139458,15.670558778442455,-0.2738567435149815,-102.01586852625567,-9.908773332531783,-14.282904806276113,15.061030430691485
3.9466667,7.9520516,14.37103878,481.82446654249,-54.65984278133145,930.3357527412672,2.3751636501019338,-3.649584012792532,-0.9893170028818488,-17.102537481549167,-3.077545810782315,21.66248750615028,992.671687899768,-33.82678793842721,-195.41771684121753,-2.2630201026218195,13.001776586771651,-0.5303831447248165,-102.20776237084416,-10.045174913896112,-14.254958353834258,15.098898024797013
3.9633333,7.89081831,14.13419967,446.2877187390163,-35.21039971532942,872.8484589688603,0.7321674808462286,-8.631288975188172,-0.5090115273775071,-17.12889570886343,-3.109761421944192,21.65370143037886,992.1005929746256,-3.438680537006178,-183.26364535741865,2.6454675616786476,10.734969037745064,-0.799822801715057,-102.392269962044,-10.168179974696004,-14.225671434596189,15.186429151735892
3.98,7.74229153,13.73486719,410.7507577142042,-15.760839952202916,815.3608202713133,-0.910838546425864,-13.613023827932969,-0.0287031700288025,-17.155254094327688,-3.141977226400507,21.644915301890773,991.5294946229,26.949609193787467,-171.10950094889958,7.553984677022727,8.468147887818862,-1.069264075349696,-102.57677866029384,-10.29118577352921,-14.196384339635902,15.32362043981106
3.996666700000001,7.54821611,13.14883967,504.776196326751,59.63983670295987,877.0623599940826,-9.687662371325498,-18.59144493816206,-5.165201658891034,-17.262443086721476,-3.236129600829451,21.64,964.6570827964136,24.564140931643323,-194.44644627120132,5.460332518699175,6.90091942531287,1.9285027771608745,-102.99539406057916,-10.610140117011056,-14.310507887136202,15.51203187910117
4.013333300000001,7.4993254,11.91346329,575.0987673028873,118.03986327149524,894.8043675526161,-14.927512219050882,-14.638978415982296,-12.782922493756995,-17.399347038886912,-3.3812117374241963,21.633752943275063,932.8501149661068,12.801004370317967,-228.65079700321172,-4.750227345701649,3.067312968247947,5.810040759900231,-103.4317940599358,-10.919952907599011,-14.416876471637533,15.663348458825292
4.030000000000001,7.17359617,10.97079915,535.0572633487909,124.81337346890272,798.0279025448873,-12.781989237721376,-5.45237424188322,-17.673525686764435,-17.493492389106915,-3.5100422166726193,21.6238429064098,917.7323537281476,19.941185931740172,-242.80232964680772,-14.506658639553368,-2.6160931739805555,7.777183077654995,-103.70432007373054,-11.078513497443224,-14.4119214532049,15.724646107626944
4.046666700000001,7.08771131,9.83182587,568.7102039838321,130.19090383591384,684.9376824179011,-21.080102928706022,-11.571491115275442,-21.2020285376197,-17.55012365644414,-3.5861607533773814,21.634086559510894,896.2459931367703,-26.91292442560323,-278.11124648457013,-16.02005155310108,-8.108205462972371,10.699268336456152,-103.88848226013216,-11.18628440982152,-14.365727955822894,15.848705607368595
4.0633333,7.28670679,8.64609491,649.0405535351533,134.68419684449262,561.5151080366843,-35.9931024751009,-27.3851214475888,-23.867764184991582,-17.582993393156492,-3.628891411103441,21.657095375209547,870.7259295532988,-107.9664081845962,-326.82090931860705,-12.312345251947583,-13.479120441770965,14.226191085691704,-104.01667423331033,-11.261884804259934,-14.293414535055716,16.132651120514716
4.08,7.9481963,7.83786982,729.3713850705053,139.17751681293757,438.0917931170503,-50.906191499852,-43.1988466620648,-26.53351582684152,-17.615863327088057,-3.671622325214475,21.68010432896164,845.2057128488316,-189.02037826644263,-375.53086441179346,-8.604616704467036,-18.850067646188705,17.753134996548646,-104.14486697564342,-11.337485652302531,-14.221100680406272,16.57723371432136
4.0966667,8.20006487,6.48680846,899.9184353628835,-389.5633530930346,747.718761714564,-81.07369011203117,-39.30760073063809,-7.905307452508524,-17.61611977593765,-3.71313370677058,21.773281344374087,855.1243639551875,-256.5216602532879,-350.2819875791525,6.051290842669264,-40.25918830979055,23.332278908913786,-104.35730920603994,-11.360746517291767,-13.949409449585971,16.975069094760116
4.113333300000001,8.5783798,4.8766528,961.6374658505694,-877.8638750630848,1142.9397195608249,-88.010508480563,-21.4865409641589,10.471540181725876,-17.6,-3.747111686017164,21.902713755678956,969.6415625694198,-245.64241158505249,-274.6492008581499,18.366791569913858,-58.693563806158075,32.75082445734532,-104.5613350580515,-11.335776627965672,-13.57754808177687,17.182630125032595
4.130000000000001,9.01359308,5.03905912,677.0541943462797,-499.30851590104663,1066.0129293286193,-26.938537102471315,-5.505522968197312,-3.099074204947476,-17.6,-3.7681448763250898,21.99946643109541,1236.5653674911755,-101.35051943462386,-209.63981625441463,9.928275618374258,-47.61327915194307,46.65376325088389,-104.62443462897528,-11.29371024734982,-13.304116607773842,17.240698119027307
4.146666700000001,9.67593955,4.86026774,392.4709228419898,-120.75315673900856,989.0861390964136,34.133434275620345,10.475495027764277,-16.669688591620826,-17.6,-3.7891780666330144,22.096219106511867,1503.4891724129316,42.94137271580473,-144.63043165067938,1.489759666834658,-36.53299449772806,60.55670204442245,-104.68753419989903,-11.251643866733971,-13.030685133770811,17.150579400483398
4.1633333,10.52908318,4.30842572,390.2070696383979,-122.68179200961748,974.4199196106542,25.18576498196654,5.679117913622674,-9.139029848330988,-17.585188846758534,-3.808513941551835,22.18886691944881,1266.9440196985197,-101.12002859982844,-195.9692727041506,10.14666722926077,-37.65517109035415,44.93362623693757,-104.70481115324148,-11.198160963654862,-12.853374526033484,17.101659104888842
4.18,11.43848952,4.31793158,399.4243882363819,-140.08371959678118,962.2855817072046,13.390525756034725,0.0377490058264715,-0.7501909738280261,-17.569775270507723,-3.8277809118653465,22.281348376953662,1009.9226357162744,-256.9088971608207,-252.0400097105321,19.49885461943931,-39.27359659668912,28.109707759179223,-104.72022472949229,-11.144213446777028,-12.67997179321188,17.102700865139504
4.1966667,12.25699987,3.42201024,395.0675948322517,-159.1092722763343,929.085361697332,5.189700847763392,-3.102871888528165,4.083385687229467,-17.532507665945168,-3.8427492334054834,22.419727768759017,895.1800431998528,-266.4423913239592,-264.9133259379523,22.312369318182007,-36.81397204184725,18.663408865440044,-104.78773390151515,-11.011027597402602,-12.325318226911993,17.131658303332813
4.2133333,12.92990645,2.5964477,368.2370817752384,-178.87392905835367,862.9109396939446,3.328540887619175,-2.01080157270956,2.7564753769128285,-17.456677509688003,-3.848338754844001,22.635648233530397,1023.0764880773912,-34.2140435323751,-204.779813000311,13.504411082510384,-27.57647537691283,21.789660792577667,-104.9469772296552,-10.745016264532005,-11.661227929737212,17.15053047302438
4.23,13.60211505,1.57751529,370.42454784601034,-141.80957938505827,893.8701847085122,4.422273923005149,-3.736259723361571,1.521311345571771,-17.362390179051282,-3.80119508952564,22.795936695612824,1040.571502277035,-125.14003083189792,-196.26095267728317,-3.113730942211859,-26.34131134557177,18.942183407348665,-105.14498062399232,-10.60358526857692,-11.128504511639733,17.187594543158784
4.2466667000000005,14.17547507,0.94888713,372.61201391678225,-104.74522971176287,924.8294297230798,5.516006958391124,-5.461717874013583,0.2861473142307136,-17.26810284841456,-3.754051424207279,22.95622515769525,1058.0665164766783,-216.06601813142072,-187.74209235425533,-19.7318729669341,-25.10614731423071,16.09470602211966,-105.34298401832945,-10.462154272621836,-10.595781093542255,17.242874072396116
4.263333300000001,14.77526821,0.09190698,366.5090677585028,-111.84168346362584,928.8694801468616,4.211665910356513,-4.478763433097404,0.1422921144365801,-17.228576762030485,-3.71229211443658,23.04541577112684,1015.4580585383926,-175.39394381303595,-173.12407114127063,-13.24762867927573,-23.16174057878328,12.47828656587087,-105.58310498958356,-10.39343817165487,-10.39602613394937,17.288381311902917
4.280000000000001,15.57994891,-0.36963434,359.62663270147004,-123.09009880159334,930.3786654565708,2.681853922154939,-3.2411627235410743,0.1010387574513691,-17.194198964542807,-3.671038757451369,23.127922485097265,967.1985064251934,-122.34900228955216,-157.93252243146668,-4.59129927187896,-21.15063942575425,8.789548895443257,-105.82718735174606,-10.331558136177051,-10.227574926259758,17.321462631498633
4.296666700000001,16.37014007,-0.72258922,352.8917394558822,-134.1337319706322,931.962286166692,1.1589599827263382,-1.9995998272633813,0.0500990355547392,-17.15975039585432,-3.6292511875629634,23.21120642003745,919.3971714409134,-69.83393061753728,-142.73164013242967,3.9679991363169074,-19.159360155462956,5.141049949618916,-106.0740352670218,-10.269708795163377,-10.058793579962552,17.342073530286203
4.3133333,16.85289544,-0.85584745,374.3717488604191,-106.01619173744098,947.780401804136,0.959034355357231,-0.0003435535723101,-1.8531929369991604,-17.111768245285738,-3.4853047358572065,23.443120147785613,959.2223564128396,-118.64777179597849,-125.74595883115036,-6.028282232138448,-20.95869080178492,9.187544647569643,-106.84974670121396,-10.213729619500024,-9.826879852214388,17.344227834460145
4.33,17.01779843,-1.07013117,377.35326143891547,-102.4322180711754,949.176240178709,1.284663380064698,0.9615590818055684,-2.673669311354176,-17.11453435526113,-3.422546217840087,23.551677707595132,962.6433315359732,-134.9948409336003,-128.0074148821444,-7.386693498690515,-21.873174010167915,9.93453088892313,-107.2289466183947,-10.19192535818826,-9.698943152056694,17.337334438934835
4.3466667,17.0736771,-1.59681772,374.3234191958096,-106.8207819416628,945.885352205618,1.7810782108560552,1.5863570584912416,-3.142267793868431,-17.13379182714528,-3.3861709931700306,23.620148718738765,954.2342354798952,-140.79133997072867,-136.52349689313405,-5.938103669182977,-22.500111705951827,9.60929358599086,-107.4792937528886,-10.181226762697069,-9.604795511734196,17.324464520210018
4.363333300000001,16.63416167,-1.73717731,371.29359513172074,-111.20931948081976,942.5944839778152,2.2774900631644024,2.211151286396575,-3.6108634647974314,-17.15304918348483,-3.3497959867508844,23.68861931905716,945.8251898782928,-146.5878042289326,-145.03952780773415,-4.489522531196981,-23.12704564011711,9.284058234478495,-107.72963938530272,-10.170528231397318,-9.510648436296409,17.30560701626837
4.380000000000001,16.16933005,-1.81481166,368.2637528886149,-115.59788335130716,939.3035960047245,2.773904893955759,2.8359492630822487,-4.079461947311686,-17.172306655368974,-3.313420762080828,23.757090330200796,937.416093822215,-152.384303266061,-153.55560981872378,-3.040932701689443,-23.753983335901022,8.958820931546226,-107.97998651979664,-10.159829635906126,-9.416500795973908,17.280749744731118
4.396666700000001,16.166232,-1.85311825,379.7727870406383,-115.42125631225572,926.2905106373984,6.271635326647593,4.5114132096531465,-8.049770830867057,-17.705156305491208,-3.1090451286127387,24.19412504439297,1031.505941925555,-199.25586316821867,-307.7210471157258,6.25593312306554,-25.039031024335745,6.0967152424278215,-109.60500352606924,-10.100381948554904,-8.97736455497116,17.241637753794024
4.4133333,15.4793669,-1.40507219,375.8168970506165,-113.25376119125336,927.047301846747,5.962999805516568,4.563557110483502,-8.041315063164838,-17.895411078791156,-3.073812763186823,24.346328863032927,1022.869784512354,-182.49935017165296,-302.59403329894644,3.154075670967881,-24.26532827958263,5.97551590536267,-109.78962112090105,-10.114474894725271,-8.88012322639563,17.201868486650188
4.43,15.23699988,-0.79618426,371.86098332515945,-111.08625306522808,927.8040975968612,5.654362432564986,4.615701324178518,-8.032859244727808,-18.08566699362432,-3.038580186365866,24.49853359489946,1014.2335752820012,-165.7427366356059,-297.46698871996085,0.0521996076508468,-23.49162089259442,5.854315841098579,-109.97423982344286,-10.128567925453654,-8.78288131436979,17.161446528247723
4.4466667,14.69905052,-0.09956429,367.9050695997024,-108.91874493920282,928.5608933469754,5.345725059613406,4.667845537873534,-8.024403426290778,-18.27592290845749,-3.003347609544909,24.650738326765993,1005.597366051648,-148.98612309955885,-292.3399441409752,-3.0496764556661873,-22.717913505606205,5.733115776834488,-110.15885852598468,-10.142660956182036,-8.68563940234395,17.120376424689812
4.4633333,14.60654542,0.64697702,363.9491796096802,-106.75124981820022,929.317684556324,5.037089538482347,4.719989438703895,-8.015947658588559,-18.466177681757458,-2.968115244118989,24.802942145405968,996.9612086384468,-132.22961010299133,-287.2129303241953,-6.151533907764177,-21.944210760853004,5.611916439769323,-110.34347612081648,-10.156753902352404,-8.58839807376841,17.07866267856429
4.48,14.36978164,1.52693628,359.9932658842231,-104.58374169217495,930.0744803064382,4.728452165530765,4.772133652398912,-8.007491840151529,-18.656433596590624,-2.9328826672980326,24.9551468772725,988.3249994080936,-115.4729965669443,-282.08588574520974,-9.253409971081211,-21.170503373864797,5.490716375505232,-110.5280948233583,-10.170846933080789,-8.49115616174257,17.03630973390921
4.4966667000000005,14.4010026,2.50499298,356.03735215876605,-102.4162335661497,930.8312760565524,4.419814792579184,4.824277866093928,-7.999036021714499,-18.84668951142379,-2.8976500904770757,25.10735160913903,979.6887901777408,-98.71638303089726,-276.9588411662241,-12.355286034398244,-20.396795986876583,5.369516311241141,-110.71271352590011,-10.18493996380917,-8.393914249716728,16.993321979135732
4.513333300000001,14.18412971,3.36592957,352.08146216874377,-100.2487384451471,931.5880672659011,4.111179271448126,4.876421766924289,-7.990580254012277,-19.03694428472376,-2.862417725051156,25.25955542777901,971.0526327645392,-81.95987003432974,-271.8318273494442,-15.457143486496236,-19.62309324212338,5.248316974175976,-110.89733112073192,-10.199032909979538,-8.29667292114119,16.949703739009678
4.530000000000001,13.99821587,4.27090077,392.5828792867703,-120.26290816753573,930.2809677149316,0.7657976393113585,-0.0128103635907469,-8.03388857884309,-27.725675977341854,-2.0486784608086577,29.698288640232168,1004.550632586432,-155.69396252476355,-251.96485364288077,-10.22552543460695,-18.19518528336644,1.0383494712169183,-114.26440006138908,-10.343888578843089,-5.871230292714217,16.954906494450874
4.546666700000001,13.70281704,5.16330646,387.4182811479752,-110.61271353628864,932.155198286687,1.2773742221726496,-0.7220415352848097,-7.947850698998237,-27.809388509082797,-1.9882194101068689,29.7959532605966,988.4266688338856,-134.46120898791605,-215.5173474621177,-14.366970407679496,-19.611322278650658,1.3499461171415228,-114.44810256159836,-10.257850698998237,-5.610791305075742,16.96712342355888
4.5633333,13.44692013,6.11115841,382.2537139967073,-100.96257680609423,934.0294176130816,1.7889477355805463,-1.4312684516003036,-7.861813335379636,-27.893100538549543,-1.9277607221586628,29.89361729497447,972.3028018249296,-113.2285828473365,-179.0700599659569,-18.508390532131607,-21.027450777129783,1.6615408934899691,-114.63180395959483,-10.171813335379635,-5.350353880068085,16.986351042588822
4.58,12.92995137,6.91285468,377.08911585791213,-91.31238217484714,935.9036481848368,2.300524318441838,-2.140499623294366,-7.775775455534782,-27.976813070290483,-1.8673016714568735,29.9912819153389,956.1788380723832,-91.995829310489,-142.62255378519382,-22.649835505204152,-22.443587772413995,1.9731375394145736,-114.81550645980413,-10.08577545553478,-5.08991489242961,17.01258623511914
4.5966667,12.57728121,7.8975239,371.92451771911703,-81.66218754360006,937.7778787565924,2.812100901303129,-2.849730794988429,-7.689737575689928,-28.060525602031426,-1.8068426207550847,30.088946535703325,940.0548743198368,-70.7630757736415,-106.17504760443074,-26.791280478276693,-23.859724767698207,2.2847341853391785,-114.9992089600134,-9.99973757568993,-4.829475904791134,17.045825896845468
4.613333300000001,11.93032949,8.59184074,298.3245969491012,-147.83584881437943,1058.0697353571986,3.5722892312340546,-19.800148074309295,-6.237850626793856,-25.195248300860857,-0.2901650203896502,30.69737661984595,1193.278056064044,-132.48841963449527,-38.350083371093405,14.799008850626926,-39.60212626491475,3.409010391179686,-113.26869010723452,-8.350984987162036,-4.154754780244664,17.24629306462258
4.630000000000001,11.3636347,9.41598428,294.26679293158116,-179.42731309469974,1118.2974145899432,7.07126415949264,-29.28513910285487,-17.137535115541823,-23.76041685545985,0.3592850022655404,30.954135931128235,1375.436201178076,-97.21673855912888,-86.53021295876917,19.309917535115694,-42.52213411871328,6.998606252832018,-112.32220480289983,-7.525327594019004,-3.7469605799728,17.54637500496497
4.646666700000001,10.94814619,10.12038311,314.76269352286255,-183.43931205178288,1093.3690829210557,14.666078102054769,-40.28375189267064,-26.10134760974665,-23.11842552645459,0.4479556737335861,30.93480319080682,1327.1615948331143,-97.62978020787315,-144.66867262151072,8.297561912772755,-40.67306380187904,7.974283693808029,-111.7341152425897,-7.103351060037913,-3.663423758536619,17.959953396055997
4.6633333,10.75224211,10.97699314,339.24493304723387,-182.9735720783017,1054.6152399235818,22.92583395828253,-51.528045538145264,-34.75080426011175,-22.60516106588348,0.4455794493790901,30.870645133235435,1241.474944609992,-103.83647822181644,-204.42358646401925,-5.235035786081422,-38.04971211451556,8.525567744051077,-111.20421721153711,-6.746917406863528,-3.632532841928173,18.48827637340736
4.68,10.67450835,11.83039165,363.7273194656317,-182.50782931036943,1015.8611644021172,31.185639373244243,-62.77240664965241,-43.40031280742494,-22.09189352571325,0.4432032107671909,30.806486690714156,1155.787780264906,-110.04321347609724,-264.1788588374491,-18.76771468084752,-35.426344686978815,9.0768551020117,-110.67431600108358,-6.390481615078643,-3.6016417399734824,19.12967928130418
4.6966667,10.36632572,12.56581409,388.2097058840294,-182.0420865424372,977.1070888806528,39.44544478820596,-74.01676776115956,-52.04982135473813,-21.57862598554301,0.4408269721552917,30.742328248192877,1070.1006159198196,-116.249948730378,-323.934131210879,-32.300393575613626,-32.802977259442066,9.62814245997232,-110.14441479063004,-6.034045823293759,-3.5707506380187923,19.881913348730244
4.7133333,9.95112884,13.30208167,91.09962166556257,-371.78137679382553,1165.8659155801577,32.060200764599934,-91.9011791960276,-26.395446292544612,-18.79543225585573,0.5057612906907125,30.12196285412684,970.1436494536532,-88.97718099340905,-272.69667926735195,-27.159806596102168,-43.504667627171614,11.354158540412376,-106.82676910787136,-4.248562266411781,-4.542546432341449,20.803862284681763
4.73,9.35181534,13.82667301,-257.28390773445363,-730.1456209523365,1265.2403594761945,24.637668254828476,-57.54165330518294,-8.592780234514933,-17.85394510855608,0.6626758152406537,30.02686314227839,966.4300057059712,-70.75132121765378,-227.07259250805845,-5.415257481954271,-36.25331459872737,5.871660152349284,-105.72361245042934,-3.639924110581707,-4.66142107215201,21.379203675879875
4.7466667000000005,8.64210424,14.23996203,-392.03451577452734,-808.499853678089,1300.616870017877,19.678695617309845,-35.11473939162868,2.0913949942161105,-17.25998068934693,0.7722270086234112,29.96221958144915,965.0067270743508,-61.68887684036176,-184.2958747765264,4.203170430644592,-28.113766260910467,1.4086272873066656,-104.97108008202754,-3.197756651593219,-4.676660229782309,21.72946025319701
4.763333300000001,7.73091517,14.48691886,-319.2353538226894,-614.8178892496453,1273.8178045009972,17.113153946261264,-24.28074830423736,5.8597397202652655,-17.003645612051724,0.8357630534230771,29.92716521190451,965.8085957776844,-61.52894127931432,-144.28569373750912,2.040754009359408,-19.11136598222676,-2.063946195709562,-104.559191239878,-2.9173216952360734,-4.5912152040172405,21.971330321593413
4.780000000000001,6.60775843,14.53565324,-246.43575507413513,-421.13476272477345,1247.0185781890823,14.547596881901177,-13.446692212639892,9.62810705647308,-16.74730899673991,0.8992994794405345,29.892110632032807,966.6104692922496,-61.36900475864969,-104.27527263644686,-0.1216753864761237,-10.108911688925645,-5.536540514249904,-104.1472999263855,-2.6368850562624684,-4.505769665579971,22.10494791895067
4.796666700000001,6.29467062,14.58965079,-173.6361563255809,-227.4516361999017,1220.2193518771671,11.982039817541088,-2.6126361210424207,13.396474392680895,-16.4909723814281,0.9628359054579918,29.85705605216111,967.4123428068146,-61.20906823798506,-64.26485153538457,-2.2841047823116547,-1.1064573956245312,-9.009134832790243,-103.73540861289302,-2.356448417288864,-4.420324127142701,22.13037493080911
4.8133333,5.4106557,14.30076751,-100.83699437375066,-33.76967177147844,1193.4202863602902,9.41649814649278,8.221354966347747,17.16481911872965,-16.234637304132924,1.0263719502576512,29.82200168261647,968.2142115101484,-61.04913267693764,-24.254670496371578,-4.446521203596608,7.895942883058218,-12.481708315806102,-103.3235197707435,-2.076013460931747,-4.334879101377641,22.047624799854525
4.83,5.04989758,14.32551971,63.73954321476079,-246.36544149911904,882.3299996403265,22.01907240225869,29.583894543754184,11.320549580980687,-15.069683127720024,0.2063755709815466,28.67718699420925,929.2345297270082,6.896186023090024,-41.60758982843602,3.1891036938460227,29.522426716541418,-19.286831636873742,-100.50381757364312,-0.7758036902492489,-5.240316872279976,21.7515226326605
4.8466667,4.20058457,14.27106407,58.05372135650942,-247.1776072644905,880.647354388896,17.23303845906696,23.456432833183396,27.605236200359847,-14.610438825343786,0.0645478730240328,28.251911563423725,950.3637236859016,-56.83732960095105,-61.968434793085706,7.549927162318461,32.12359712761856,-21.33194152422568,-99.6381382855674,-0.4153224681917492,-5.7035405635522425,21.518047041490117
4.863333300000001,3.67528833,14.27143578,98.05752398470764,-170.63194677740398,901.4993465492876,13.95048293921079,23.06284746497878,32.71649108405106,-14.47121134815576,0.0859674848991139,28.07252231396992,959.188603778435,-30.167235364990766,-81.31837667073705,16.96920148438535,33.78897195090611,-22.42434172985481,-99.25258527181596,-0.2519979276442563,-5.861510201130965,21.28898823016891
4.880000000000001,3.54709594,14.37522164,138.0615666366803,-94.08582701452023,922.3514638221314,10.66790772394284,22.669259735252528,37.82777663539406,-14.331983035599531,0.1073872252923795,27.89313198817632,968.0135368204604,-3.4969811078259525,-100.66843464850334,26.388532322323893,35.454356766482505,-23.516748489911357,-98.86702994473715,-0.0886724071456062,-6.0194807865312985,21.064047608987597
4.896666700000001,3.3961612,14.65384029,178.06560928865292,-17.539707251636514,943.2035810949756,7.385332508674887,22.27567200552627,42.93906218673706,-14.192754723043306,0.1288069656856451,27.713741662382724,976.8384698624858,23.173273149338858,-120.01849262626963,35.807863160262436,37.11974158205891,-24.609155249967905,-98.4814746176584,0.0746531133530438,-6.177451371931633,20.84282088363826
4.9133333,3.38245358,15.04837309,207.64013965385809,80.40528899531527,996.1861224556408,6.35425677587891,28.410202024599517,18.040514966802917,-13.886140089256577,0.0880311309459055,26.60660705344516,957.3364447589004,66.92280788069883,-172.63187340807357,9.306157178624249,44.4861086317618,-21.853992380537957,-97.17133079351264,0.4891361706759313,-7.1434707739196055,20.55867428959943
4.93,3.32091517,15.37721579,255.4415547007497,85.8205618488007,1045.0370162951283,1.9293321419919056,30.38590531863336,6.2803186333901095,-13.714407257087476,-0.0789708020353717,25.884250969227057,969.4790265325896,60.57504149503306,-195.8638805427666,-11.400324085291476,47.08438363217829,-22.822168948388615,-96.59322177126244,0.7457269202810693,-7.911207596316918,20.25421153112982
4.9466667,3.49950314,15.58843178,305.6042024775854,81.99917467288597,1090.757364580808,-2.962245365883084,31.46114371819721,-1.816781802762092,-13.568013296583478,-0.2506051005573012,25.273434789193132,986.6121679791612,48.74741909983069,-213.8551934819477,-28.513273261448564,48.80577468500117,-24.422406378725427,-96.15403988975044,0.9678418948388604,-8.59269672280105,19.938666753135973
4.9633333,3.60056185,15.84093427,337.3653823854304,68.00811781663364,1070.7726542015785,-7.707944472883128,34.14734372390015,-3.981143586496785,-13.666112428267374,-0.2663667456960423,25.195432780127703,974.9586992617936,32.60758547296359,-208.26102944742289,-30.394400611579616,50.68693329202255,-23.66958956812241,-95.97295360616428,1.0351784626990337,-8.710645445483204,19.5963502157831
4.98,3.71866568,16.13548191,368.0611717002998,53.42806692351181,1046.9829684511135,-12.445226176684647,36.92684834442445,-5.80196608023282,-13.77837028854703,-0.2731022173128217,25.148284478810247,961.6381815610094,16.217937872133678,-201.30104211008415,-31.393495568068563,52.57735565913198,-22.780507314707528,-95.8068119729504,1.0935525500444554,-8.795961419295743,19.226825134311518
4.9966667000000005,3.87973854,16.41174079,398.7569610151692,38.84801603038997,1023.1932827006484,-17.18250788048617,39.70635296494875,-7.622788573968856,-13.890628148826687,-0.2798376889296012,25.10113617749279,948.3176638602254,-0.1717097286962285,-194.34105477274545,-32.39259052455751,54.467778026241405,-21.891425061292644,-95.6406703397365,1.1519266373898769,-8.881277393108283,18.830537195850948
5.013333300000001,3.95028301,16.58487721,429.4525661556721,24.26805261739799,999.4037396880118,-21.91976116065449,42.48584090847879,-9.443600142791844,-14.002885335560531,-0.2865731201336319,25.053988159064577,934.9972260823872,-16.56125899183781,-187.38110919524695,-33.39167948648874,56.35818905083938,-21.00234814236058,-95.4745297033704,1.210300374491477,-8.966592855026004,18.406955941315573
5.030000000000001,3.54568741,16.37111415,390.221438304307,-50.10707891749636,911.4571442089216,-17.009111468583356,47.2079570401216,-7.488126419378846,-14.493830431491356,-0.1892893641180779,25.146204579863756,1012.576778009096,-85.80669379259011,-216.74913701741576,-15.6713749053721,53.872597464041895,-16.630032172595957,-94.8399649886449,1.2554939439818342,-8.6923741483724,17.936242483057764
5.046666700000001,3.46915892,16.28955831,454.5459429133927,-35.95683267716248,887.6406062992124,-2.1316062992115103,33.30889173228219,-3.830643700787161,-14.75700196850395,-0.1095255905511767,25.143946850393696,986.7653818897594,-37.32641732282899,-234.06421653543373,-7.947228346456486,48.60130708661381,-19.44863582677199,-94.37715354330706,1.26,-8.621631889763782,17.60449354132624
5.0633333,3.3859162,16.07054912,503.3061284119629,-38.65377167673611,897.0202578615301,0.1973091225544796,27.29898515555704,-0.5810343581075132,-14.97033769015782,-0.1254234431744018,25.156101484444296,964.3312102990644,-27.423771676736116,-254.58341802085275,-4.498664318109516,47.87100952253445,-20.012380683815024,-94.21711898984152,1.2562712165079577,-8.674745401904508,17.332635310213163
5.08,3.34832391,15.80781311,529.7957858182857,-62.14775760212915,912.0711361772632,-3.6965059494921384,26.908487942028007,2.648935450939753,-15.21021454989708,-0.178419493581913,25.1951512057972,959.9046454571318,-50.91775760212914,-280.7997273777053,-0.7415232707980595,49.24890683312974,-18.564751727946692,-94.15296587619032,1.2506926848861144,-8.741687781366627,17.06444454841224
5.0966667,3.51809079,14.70300721,556.2854432246086,-85.64174352752217,927.1220144929964,-7.590321021538757,26.51799072849898,5.878905259987018,-15.45009140963634,-0.2314155439894243,25.234200927150106,955.4780806151992,-74.41174352752218,-307.0160367345579,3.0156177765133982,50.62680414372503,-17.117122772078357,-94.08881276253912,1.245114153264271,-8.808630160828747,16.79984980750142
5.113333300000001,3.30261834,13.67838647,580.5033225110349,-101.6321607650768,911.3519355566232,-10.280945757723718,26.74921128003967,10.4171267287898,-15.71898754291323,-0.3276267778323063,25.340759784207997,953.3795017165291,-98.80624590485746,-326.66561490926597,6.709020009808915,51.225946640509555,-15.765506228543384,-94.02183540951448,1.207341638057847,-8.857753114271691,16.532366374433593
5.130000000000001,3.21867243,12.42917425,564.7761999838317,-3.077213105913444,708.328317570661,-3.058870207204859,24.226178158596092,20.468116562929435,-16.10623312585887,-0.7252914073235889,25.98270040147659,982.6738735752988,-126.65972354700604,-318.68237652574766,13.64961226524452,44.99617492522815,-15.26059817314684,-94.02929243122357,0.9301196346293682,-8.640239269258736,16.28874674338972
