time,ankle_angle_r,ankle_angle_l,imu0_acc_x,imu0_acc_y,imu0_acc_z,imu0_gyro_x,imu0_gyro_y,imu0_gyro_z,imu0_roll,imu0_pitch,imu0_yaw,imu1_acc_x,imu1_acc_y,imu1_acc_z,imu1_gyro_x,imu1_gyro_y,imu1_gyro_z,imu1_roll,imu1_pitch,imu1_yaw
0.0033332999999999835,4.4674678,2.88745861,366.8068344569288,-256.9440601747815,895.578672908864,0.09329138576779009,-0.43,-0.24,-23.54,-14.47,34.502774282147314,976.0616279650437,-128.45956754057428,-193.49384968789013,-0.7247660424469426,0.053417228464419805,-0.053417228464419805,-103.68,-6.512774282147316,16.79
0.020000000000000018,4.4680041,2.88827683,366.34882622037844,-256.81234755924305,894.6287739387396,0.139160652383929,-0.4163868841279763,-0.29672131613343194,-23.54,-14.472268852645337,34.51453770529067,977.1243737568903,-127.30792152071376,-197.13117377962152,-0.17117377962152663,-0.19033443200545563,-0.01840001136557398,-103.67773114735466,-6.52,16.79907541058135
0.03666670000000005,4.47431982,2.89754817,366.1167786270387,-257.27644274592257,898.9050795874297,0.05391867932033842,-0.38797289310677946,-0.4151129453884188,-23.54,-14.477004517815537,34.524009035631074,976.7786701994658,-132.62607350684777,-197.3632213729613,-0.40322137296130095,-0.33714005228163935,-0.30727558674774197,-103.67299548218446,-6.52,16.818018071262145
0.053333299999999806,4.47490142,2.89841249,366.52585772256987,-257.36131621336966,900.9621316987796,0.0,-0.35766868533548146,-0.4435204293414301,-23.54,-14.4790514373335,34.53,976.7914492906262,-135.94352042934145,-197.76516335728888,-0.5964795706585699,-0.37782905334242156,-0.4719773093364729,-103.6690514373335,-6.52,16.829051437333497
0.06999999999999984,4.49011578,2.93234216,368.03857164983583,-256.7934031348739,899.1990197323586,0.0,-0.32411018524255036,-0.31703069822192054,-23.54,-14.476470014249427,34.53,977.4213165231398,-135.8170306982219,-198.45956616690415,-0.7229693017780795,-0.23585078371848223,-0.42293027073911205,-103.66647001424943,-6.52,16.826470014249427
0.08666669999999987,4.48981481,2.93693627,369.5512855771018,-256.2254900563782,897.4359077659377,0.0,-0.2905516851496192,-0.19054096710241097,-23.54,-14.473888591165355,34.53,978.0511837556533,-135.6905409671024,-199.1539689765194,-0.8494590328975891,-0.09387251409454289,-0.3738832321417512,-103.66388859116536,-6.52,16.823888591165353
0.10333330000000007,4.48953067,2.9374026,371.06399042810233,-255.65758038535407,895.6728063781674,0.0,-0.25699338640728564,-0.06405199491976898,-23.54,-14.471307183569792,34.53,978.681047208971,-135.56405199491977,-199.84836761972616,-0.975948005080231,0.0481049036614839,-0.32483648782603286,-103.66130718356979,-6.52,16.82130718356979
0.1200000000000001,4.48882533,2.93747422,366.48235450108615,-252.37039580218354,900.4013115355319,0.2859948655739551,-0.06,-0.3291773633875935,-23.538832905464496,-14.468832905464497,34.54,971.6924165655768,-125.43826163003924,-197.71654046886897,-0.39100770163906734,0.043182497813638435,-0.7577995316952044,-103.6488329054645,-6.508832905464496,16.848832905464498
0.13666670000000014,4.44181024,2.94074375,368.5464731288967,-253.0568680565351,896.4987637881908,0.22957248850396317,-0.06,-0.44672398228341004,-23.534131040708665,-14.464131040708665,34.54,970.7755529381894,-130.14482825062774,-192.6667377211047,-0.47564126724405525,0.21715149377944687,-0.3863522159844242,-103.64413104070867,-6.504131040708663,16.844131040708664
0.1533332999999999,4.43372541,2.94209275,370.38222536716023,-253.8533302485855,893.1442875285904,0.17634651498736023,-0.07674513964126553,-0.5463465149873603,-23.53,-14.459695542915615,34.54,969.9922253671602,-134.20571247140967,-188.6538042614662,-0.5165097207174689,0.3569083453713742,-0.06,-103.64,-6.499695542915614,16.839695542915614
0.16999999999999993,4.42365901,2.94458798,370.5653042614662,-255.4458658360419,893.756222462983,0.1462513542795234,-0.2146812928855177,-0.5162513542795234,-23.53,-14.457187612856627,34.54,970.1753042614663,-133.593777537017,-192.14484290357527,-0.24063741422896462,0.2490673528349589,-0.06,-103.64,-6.497187612856627,16.837187612856628
0.18666669999999996,4.30989487,2.97790117,370.7483831557722,-257.03840142349827,894.3681573973757,0.11615619357168658,-0.35261744612976986,-0.4861561935716866,-23.53,-14.454679682797641,34.54,970.3583831557722,-132.98184260262428,-195.63588154568436,0.035234892259539685,0.14122636029854357,-0.06,-103.64,-6.49467968279764,16.83467968279764
0.20333330000000016,4.13438417,3.05487422,370.93146095160705,-258.63092745576023,894.9800886601662,0.08606121343445255,-0.49055277175875917,-0.4560612134344526,-23.53,-14.452171767786204,34.54,970.5414609516072,-132.36991133983386,-199.1268992416035,0.3111055435175183,0.03338601480678832,-0.06,-103.64,-6.492171767786204,16.832171767786203
0.2200000000000002,4.13126463,3.0577903,370.7672065021071,-252.78749548464717,893.5396146899457,-0.020698374473215958,-0.4015291992775254,-0.2618783865141334,-23.53,-14.443275135460565,34.546724864539435,975.2998073449733,-132.66043347381103,-198.53874774232358,-0.2704334738110289,0.35021673690551447,0.06104756170982392,-103.64,-6.4765502709211304,16.84344972907887
0.23666670000000023,4.09361981,3.07558601,367.3810484659974,-246.5784728686554,898.2802227626185,-0.11286141665488555,-0.6524094443659036,-0.18,-23.525594881945427,-14.435594881945425,34.554405118054575,973.9894748480135,-131.4433216739714,-193.66117641736176,-0.026852764032225696,0.6028614166548856,0.06713858334511444,-103.64,-6.461189763890852,16.85881023610915
0.2533333,4.08754794,3.07906142,363.92661108440547,-243.6989895942316,904.378506489467,-0.16941427965502615,-1.0294285310335076,-0.18,-23.52088214336208,-14.43088214336208,34.55911785663792,970.1910075498374,-129.71374661388379,-190.32455750035345,0.6612070691361512,0.6594142796550262,0.010585720344973862,-103.64,-6.4517642867241625,16.86823571327584
0.27,4.08678877,3.07950318,365.28785801039965,-246.1730724560671,903.1342224921243,-0.1337241431662048,-1.1617011424450603,-0.1337241431662048,-23.51742911906479,-14.427429119064788,34.56,971.8657775078757,-132.21539814779672,-192.08320662694044,1.5124175427942474,0.5440268341746686,-0.07712642805632536,-103.64,-6.444858238129578,16.877712642805633
0.28666670000000005,4.08582482,3.07984019,367.758099916499,-249.88001677610356,900.199031085133,-0.0767915512202526,-1.2376112650396633,-0.0767915512202526,-23.514266197290016,-14.424266197290013,34.56,974.800968914867,-135.69144917827458,-195.01523511215697,2.4011985615060567,0.3890436672106876,-0.172014081299579,-103.64,-6.438532394580028,16.887201408129958
0.3033332999999998,3.88923599,3.39095303,370.2283270011765,-253.5869388545185,897.2638572892549,-0.019859300869169844,-1.3135209321744403,-0.019859300869169844,-23.511103294492735,-14.421103294492731,34.56,977.7361427107451,-139.1674793524879,-197.94724600523776,3.2899742475424043,0.23406143014385122,-0.2669011652180503,-103.64,-6.432206588985463,16.896690116521803
0.31999999999999984,3.8909788,3.38902226,371.664605078336,-256.3106493787142,896.24,-0.035179902755266945,-1.1992803889789323,-0.035179902755266945,-23.51,-14.408273365748245,34.58931658562939,972.7500999459752,-133.3674727174501,-196.1087012425716,1.2722631010265038,0.2503598055105339,-0.4465829281469456,-103.64,-6.418273365748244,16.905863317125878
0.3366666999999999,3.88730281,3.33863598,370.7058257524046,-256.84477536456717,895.6948893887683,0.04063580515047967,-1.2174084393422264,0.04063580515047967,,,,970.2152178094942,-134.69855606577713,-189.79061476884897,0.36520046540489315,0.13227365808253388,-0.7876123177164104,-103.64279543903196,-6.404409121936085,16.915590878063917
0.3533333000000001,3.88465042,3.33568377,368.1823070431275,-255.96568073223705,894.6865161340365,0.22679702140862623,-1.4345965249767305,0.22679702140862623,,,,973.3696161960906,-146.31294750232706,-181.83739391870927,1.725211573068575,-0.17799503568104375,-1.2271596338814788,-103.64796658392802,-6.394066832143965,16.925933167856034
0.3700000000000001,3.79927463,3.2682891,367.4243773864478,-255.62,894.3361070268421,0.31344788282897373,-1.4162591896050598,0.2654197298683532,,,,973.3439778879581,-148.4881979825611,-183.58773921468062,2.2715267567105486,-0.3365013962500716,-1.5171886932239138,-103.65,-6.38615774776315,16.937684504473697
0.38666670000000014,3.69827964,3.2058328,367.81064235101917,-255.62,894.4120935772496,0.33561062669782127,-1.245289451188236,0.20842981706274533,,,,971.2575138580194,-144.54639568017322,-191.62648302653832,2.290523394312418,-0.3966574153226577,-1.710321175509585,-103.65,-6.379825535229194,16.95034892954161
0.4033332999999999,3.6808817,3.20826224,368.1969049980054,-255.62,894.4880796717388,0.35777323759047114,-1.074320738587794,0.1514402461959313,,,,969.1710623468399,-140.60461702855193,-199.66517860602946,2.3095199179346895,-0.4568130734598502,-1.903452499002677,-103.65,-6.373493360688437,16.963013278623126
0.41999999999999993,3.76495789,3.41921666,369.13240176400745,-254.38220048623285,894.7370040142478,0.5981268728444595,-0.5913394018205504,-0.23908859614405675,-23.49,-14.38577542828066,34.58,969.6675829705433,-138.22299598575225,-204.20561429298354,0.4104935828574865,-0.07599197150449927,-1.9846525696839488,-103.65844914343869,-6.361550856561316,16.97844914343868
0.43666669999999996,3.82276749,3.42470493,369.3945061401743,-252.82545026027435,893.6617864312215,1.000918667855396,-0.06,-0.7633986943142271,-23.49,-14.378144516982543,34.581855483017456,971.376343475885,-137.98453159241896,-203.85087506830405,-2.2779302867331968,0.4788671018952576,-2.1077160564838504,-103.67371096603492,-6.348144516982543,16.986289033965086
0.45333330000000016,4.08541914,3.79671269,367.52034646688327,-253.17535730925195,890.1531294469529,1.2357877829225523,-0.06,-0.8496771447470601,-23.49,-14.373351269736274,34.586648730263725,969.9719220327285,-138.09956952632942,-202.56149155905783,-2.479246671076474,0.4501076184176466,-2.5151420724166726,-103.68329746052746,-6.343351269736274,16.976702539472548
0.4700000000000002,4.08177065,3.78485787,366.51220899722404,-253.3036924363996,888.6304605088034,1.3771198235540167,0.003873825911703266,-0.9042799558885042,-23.49,-14.36904665931475,34.59,968.944239647108,-136.6441681560634,-201.31107730919877,-2.5332459976423136,0.4700403087804707,-2.771399779442521,-103.69,-6.34,16.97095334068525
0.48666670000000023,4.05905466,3.82433305,367.5167615887744,-252.9170822907556,891.7233416739552,1.3010653686732316,0.2161925124538947,-0.8852663421683079,-23.49,-14.365877723694718,34.59,968.7921307373465,-131.53901287219068,-200.15124687226677,-2.244872856219337,0.6031356048218444,-2.6763317108415396,-103.69,-6.34,16.97412227630528
0.5033333,3.90154352,4.25511502,368.52130815302127,-252.53047446476782,894.8162042818573,1.2250113701182646,0.4285099250865111,-0.8662528425295661,-23.49,-14.36270880708826,34.59,968.6400227402365,-126.4338882191885,-198.99142339430352,-1.9565014450317535,0.7362301022930369,-2.581264212647831,-103.69,-6.34,16.97729119291174
0.52,4.05972267,4.49048515,369.41639535583226,-250.38751127955243,897.4963953558323,1.1774697707994946,0.5648697587679723,-0.8237953438007581,-23.49,-14.358544185766709,34.59145581423329,970.5714329543404,-122.8168327016784,-199.13699091620043,-1.8250093244300059,0.9752000240630444,-2.553865126631775,-103.6914558142333,-6.337088371533418,16.984367442699874
0.5366667,4.09159328,4.5540027,369.4108723380376,-240.12120364187314,896.7304924384838,1.2378334782974654,0.3048387811789794,-0.6575574198254815,-23.48861749109172,-14.35,34.60069125445414,982.264924889874,-127.26705168205157,-206.21507511012598,-2.529723941528016,1.7687566286018925,-2.894885160349037,-103.7,-6.32,17.00792623663758
0.5533332999999998,4.45197322,4.90619643,367.9285031003619,-242.63234648298305,890.104255183637,0.9525826155270649,0.33757248674279583,-0.5733850340899536,-23.47926500378777,-14.35,34.60536749810611,979.5246461098174,-127.72064731629303,-208.9553538901826,-2.730802418562889,2.1662373390196636,-3.063229931820093,-103.7,-6.32,16.99389750568166
0.5699999999999998,4.72385527,5.12570194,366.4722723755481,-245.10115553262835,883.6046814547329,0.6691952540624203,0.37224658240907665,-0.49140830539076447,-23.47003353108073,-14.35,34.61003353108073,976.7952463244776,-128.12007222078933,-211.6462599948414,-2.9352979107557333,2.5630848594273887,-3.2320453959246818,-103.7,-6.32,16.980067062161467
0.5866666999999999,4.75023629,5.06987146,367.78342623162234,-243.0878537099132,890.5151071060097,0.5832179520247622,0.612266550597539,-0.6418685839566662,-23.473615918665633,-14.35,34.61361591866564,975.2189957871205,-122.78589710686961,-209.10992958473048,-3.501315149170316,2.8926645172384116,-3.4505710386037296,-103.7,-6.32,16.98723183733127
0.6033332999999996,4.58747555,5.07662972,369.09457222078925,-241.07456396698484,897.4254912948154,0.497241165849886,0.8522850786690683,-0.7923279597626995,-23.477198284756255,-14.35,34.617198284756256,973.6427547072478,-117.45175399793668,-206.57361439257164,-4.0673289914882504,3.222242197575437,-3.6690953701315396,-103.7,-6.32,16.99439656951251
0.6199999999999997,4.73373661,4.96682809,369.3382199137249,-240.82694779470012,901.4646826305134,0.3420697244475835,0.9904392992340926,-0.9004076063033728,-23.48,-14.348401267717229,34.62,972.7617211022097,-115.11534466062135,-203.76985033893837,-4.647490976318323,3.6846377321947146,-3.7920380315168636,-103.7,-6.32,17.00319746456554
0.6366666999999997,4.63741057,4.92145101,365.75074905361396,-246.91611101329332,895.1994472224669,-0.06142904304955593,0.7630127211902503,-0.8563895589400484,-23.48,-14.341064926490008,34.62,974.3757161721983,-123.53746438947073,-200.00630728937415,-5.278416321859305,4.623689409278966,-3.5719477947002423,-103.7,-6.32,17.017870147019984
0.6533333000000003,4.63557316,4.84348237,365.1457783707183,-248.58914512916027,895.5290962992955,-0.07154372013928151,0.8003769778929483,-0.8361553486112233,-23.478846279050934,-14.34,34.62,975.483366758442,-122.75944787432176,-201.00944723459392,-5.320389999190217,4.892677909142443,-3.497312324884605,-103.69884627905094,-6.318846279050936,17.025768604745323
0.6700000000000004,4.68258474,4.83571843,365.04725467649206,-249.5122986476638,896.9786092801037,-0.014858854968012467,0.8827049963559819,-0.8199596728480035,-23.477496639404,-14.34,34.62,976.5050439711717,-120.41917272653652,-202.8220132804276,-5.262355494372013,5.047886468539966,-3.447375657948011,-103.69749663940401,-6.317496639404,17.03251680298
0.6866667000000004,4.80666725,4.92357772,364.9487309822658,-250.43545216616732,898.4281222609118,0.041826010203256575,0.9650330148190156,-0.8037639970847839,-23.476146999757066,-14.34,34.62,977.5267211839015,-118.07889757875127,-204.63457932626127,-5.204320989553809,5.203095027937488,-3.3974389910114167,-103.69614699975706,-6.316146999757065,17.039265001214673
0.7033333000000002,4.74500217,5.17817375,364.8502078791805,-251.3586001457608,899.8776265446595,0.09851053526601389,1.047360539314925,-0.7875684184954246,-23.474797368207952,-14.34,34.62,978.5483922665803,-115.73863647258887,-206.4471344967204,-5.1462868329419384,5.358302656085514,-3.347502623694226,-103.69479736820796,-6.314797368207952,17.04601315896024
0.7200000000000002,5.02691137,5.4378211,364.75168418495423,-252.28175366426433,901.3271395254676,0.15519540043728292,1.1296885577779587,-0.7713727427322049,-23.473447728561016,-14.34,34.62,979.5700694793101,-113.3983613248036,-208.25970054255407,-5.088252328123734,5.513511215483037,-3.297565956757632,-103.69344772856101,-6.313447728561017,17.052761357194914
0.7366667000000002,5.07004207,5.83408595,364.653160490728,-253.20490718276784,902.7766525062758,0.211880265608552,1.2120165762409922,-0.7551770669689851,-23.47209808891408,-14.34,34.62,980.5917466920398,-111.05808617701835,-210.07226658838775,-5.030217823305531,5.668719774880559,-3.2476292898210373,-103.69209808891408,-6.312098088914082,17.05950955542959
0.7533333,5.29783596,6.17316614,364.55463738764274,-254.1280551623613,904.2261567900234,0.2685647906713093,1.2943441007369016,-0.738981488379626,-23.47074845736497,-14.34,34.62,981.6134177747185,-108.71782507085595,-211.88482175884684,-4.97218366669366,5.823927403028585,-3.1976929225038466,-103.69074845736496,-6.310748457364968,17.066257713175155
0.77,5.4164981,6.60947008,362.4709110058236,-239.22441088486752,903.5703563189228,-1.6199219390735353,1.2580953251948572,0.8640582241286737,-23.47,-14.360326935444853,34.630326935444856,964.2556387366285,-91.83314356012107,-178.00950496509972,-7.672530991308863,9.410284689319873,-1.9320185505330918,-103.6693461291103,-6.340326935444852,17.05130774177941
0.7866667,5.14973465,6.99358334,361.5111274759121,-241.31312012414224,902.8495352867249,-1.5294505407622,1.192208545989863,0.9063437689915804,-23.47,-14.361310320209107,34.63131032020911,967.6414324799538,-95.60245736150529,-170.75900909825762,-7.078566593699661,9.110352336222512,-1.8779323884991412,-103.66737935958179,-6.341310320209106,17.055241280836427
0.8033332999999998,5.28852101,7.57460652,360.55134970469015,-243.40181683118658,902.1287185794445,-1.4389796852781704,1.1263221621047548,0.9486290601417245,-23.47,-14.362293699073062,34.63229369907307,971.0272059085571,-99.37174854705187,-163.50855673430382,-6.484605759869729,8.810421782715673,-1.823846550981515,-103.66541260185387,-6.342293699073063,17.059174796292254
0.8199999999999998,5.11444448,7.92822492,359.5915661747786,-245.49052607046133,901.4078975472466,-1.3485082869668354,1.0604353828997606,0.9909146050046312,-23.47,-14.363277083837316,34.63327708383732,974.4129996518824,-103.14106234843608,-156.2580608674617,-5.890641362260528,8.510489429618312,-1.7697603889475646,-103.66344583232537,-6.343277083837317,17.06310833534927
0.8366666999999999,5.0074832,8.01784409,358.63178264486703,-247.57923530973605,900.6870765150487,-1.2580368886555,0.9945486036947664,1.0332001498675378,-23.47,-14.36426046860157,34.634260468601575,977.7987933952077,-106.91037614982031,-149.0075650006196,-5.296676964651327,8.210557076520951,-1.715674226913614,-103.66147906279686,-6.34426046860157,17.067041874406282
0.8533332999999996,4.87625042,8.52554275,357.67200487364516,-249.66793201678038,899.9662598077683,-1.1675660331714708,0.928662219809658,1.0754854410176822,-23.47,-14.365243847465527,34.63524384746553,981.1845668238111,-110.67966733536687,-141.7571126366658,-4.702716130821395,7.910626523014114,-1.6615883893959877,-103.65951230506894,-6.345243847465527,17.07097538986211
0.8699999999999997,4.73121398,8.84487037,356.7122213437336,-251.75664125605513,899.2454387755704,-1.0770946348601353,0.8627754406046639,1.1177709858805889,-23.47,-14.36622723222978,34.636227232229785,984.5703605671364,-114.44898113675109,-134.50661676982367,-4.108751733212194,7.610694169916753,-1.6075022273620374,-103.65754553554044,-6.346227232229781,17.074908928919125
0.8866666999999997,4.44204199,8.9703737,355.75243781382204,-253.84535049532985,898.5246177433725,-0.9866232365488002,0.7968886613996697,1.1600565307434956,-23.47,-14.367210616994035,34.63721061699403,987.9561543104617,-118.2182949381353,-127.25612090298156,-3.5147873356029935,7.310761816819392,-1.553416065328087,-103.65557876601194,-6.347210616994034,17.078842467976138
0.9033333000000003,4.05040325,9.00501373,354.7926600426001,-255.9340472023743,897.8038010360921,-0.8961523810647659,0.7310022775145578,1.2023418218936421,-23.47,-14.368193995857991,34.63819399585799,991.3419277390653,-121.98758612368209,-120.00566853902737,-2.9208265017730293,7.010831263312539,-1.4993302278104577,-103.65361200828403,-6.348193995857991,17.082775983431965
0.9200000000000004,3.64396212,9.02775856,353.83287651268853,-258.02275644164905,897.0829800038942,-0.8056809827534307,0.6651154983095636,1.2446273667565486,-23.47,-14.369177380622245,34.63917738062224,994.7277214823906,-125.7568999250663,-112.75517267218527,-2.326862104163828,6.710898910215178,-1.4452440657765073,-103.65164523875552,-6.349177380622245,17.08670952248898
0.9366667000000004,3.23787965,9.1941598,362.79410832527344,-264.644528457704,894.7854715422959,-0.9087488282121835,-0.6694397738263508,0.4291970091511028,-23.460018674205788,-14.38001867420579,34.65001867420579,983.4054715422959,-123.28544349378765,-107.73153150807248,5.983062569749283,-0.9872829402574398,-2.8020541626367135,-103.62,-6.370056022617365,17.109962651588422
0.9533333000000002,2.83246132,9.30453929,363.1838169991604,-264.12550736020916,895.3044926397909,-0.7900648229829825,-0.6162976819326788,0.35302667743683946,-23.461790077268912,-14.381790077268912,34.651790077268906,983.9244926397909,-122.85322114638579,-113.56830460106079,6.2735726721013565,-1.6781301348751767,-2.996908499580178,-103.62,-6.375370231806732,17.106419845462177
0.9700000000000002,2.62547507,9.60338294,363.5735280113087,-263.60648314857525,895.8235168514248,-0.6713801056468998,-0.5631552711851789,0.27685588869875655,-23.463561490960494,-14.383561490960494,34.65356149096049,984.4435168514248,-122.42099620563945,-119.40511271482785,6.564084517521022,-2.3689814745926734,-3.1917640056543437,-103.62,-6.380684472881482,17.102877018079013
0.9866667000000002,2.55150345,9.67122016,363.96323902345705,-263.08745893694135,896.3425410630587,-0.552695388310817,-0.5100128604376792,0.20068509996067355,-23.465332904652076,-14.385332904652078,34.65533290465208,984.9625410630587,-121.98877126489313,-125.2419208285949,6.854596362940687,-3.05983281431017,-3.3866195117285094,-103.62,-6.385998713956233,17.099334190695846
1.0033333,2.49748987,10.11309559,364.35294769734395,-262.56843783944646,896.8615621605536,-0.43401138308161596,-0.45687076854400716,0.12451476824641022,-23.4671043077152,-14.3871043077152,34.657104307715194,985.4815621605536,-121.55654891749126,-131.0786939215832,7.145106465292761,-3.7506800089279073,-3.5814738486719735,-103.62,-6.391312923145599,17.0957913845696
1.02,2.40901309,10.16288864,364.7426587094923,-262.04941362781256,897.3805863721875,-0.31532666574553325,-0.4037283577965074,0.04834397950832725,-23.468875721406782,-14.388875721406784,34.65887572140678,986.0005863721875,-121.12432397674492,-136.91550203535027,7.435618310712426,-4.4415313486454036,-3.7763293547461396,-103.62,-6.39662716422035,17.092248557186434
1.0366667,2.23040947,10.25396085,368.8309654738959,-258.93991431324895,896.1755182686667,-0.4373000083801225,1.0788665046509645,-0.7826999916198775,-23.48,-14.4,34.68,998.0478847314172,-106.18719802229108,-178.21725027235397,-2.2753005111874742,0.715399983239755,-2.560383264895666,-103.57878333193665,-6.4,17.142433336126707
1.0533332999999998,1.97338389,10.46477083,362.86713559037963,-247.17287291544466,904.1854865080029,-0.47920045252660654,0.2687912511522734,-0.7407995474733935,-23.48,-14.4,34.68,1005.0382754965223,-96.29869320372086,-179.5790147071147,-4.831227604123,0.6315990949467869,-2.2181963043660464,-103.5717999245789,-6.4,17.156400150842202
1.0699999999999998,1.99192192,10.65676857,361.3024978880441,-245.2950887021475,904.8528927126406,-0.6913154595171387,-0.04010768751945151,-0.6969974656529281,-23.48,-14.4,34.68,1001.8445163843315,-93.42767524787693,-180.38653505846784,-5.496600506869415,0.8916216264283472,-2.224607265128273,-103.56889991552175,-6.398899915521764,17.16330025343471
1.0866666999999999,1.87170523,10.9066794,361.26544595616025,-246.8512698412698,902.9706545729402,-0.9625356009070287,-0.17497671957671915,-0.6525351473922903,-23.48,-14.4,34.68,995.1144034769463,-92.99342660619803,-181.00159712773998,-5.505492970521542,1.2710334089191222,-2.3520659108087676,-103.5674178382464,-6.39741783824641,17.16774648526077
1.1033332999999996,1.80513053,11.24031854,361.2283942465875,-248.40744164332395,901.0884277266463,-1.2337541149793203,-0.3098449424214106,-0.6080730959050294,-23.48,-14.4,34.68,988.384330950158,-92.55918057000578,-181.6166555066471,-5.514385380818994,1.6504429149437487,-2.4795237917389157,-103.5659357698635,-6.395935769863501,17.1721926904095
1.1199999999999997,1.69119586,11.48776874,361.19134231470366,-249.96362278244627,899.2061895869459,-1.5049742563692101,-0.4447139744786783,-0.5636107776443917,-23.48,-14.4,34.68,981.6542180427728,-92.12493192832689,-182.23171757591925,-5.523277844471122,2.0298546974345237,-2.6069824374194104,-103.56445369258815,-6.394453692588146,17.17663892223556
1.1366666999999997,1.64001077,11.92434772,361.1542903828198,-251.51980392156858,897.3239514472456,-1.7761943977591002,-0.579583006535946,-0.5191484593837541,-23.48,-14.4,34.68,974.9241051353875,-91.690683286648,-182.84677964519142,-5.532170308123249,2.4092664799252987,-2.734441083099905,-103.56297161531279,-6.392971615312792,17.181085154061627
1.1533333000000003,1.58248777,12.16199514,361.1172386732471,-253.0759757236228,895.4417246009514,-2.0474129118314064,-0.7144512293806444,-0.4746864078964908,-23.48,-14.4,34.68,968.1940326085988,-91.25643725045572,-183.46183802409857,-5.541062718420702,2.7886759859499453,-2.86189896403006,-103.56148954692988,-6.391489546929883,17.18553135921035
1.1700000000000004,1.57081524,12.51308362,361.0801867413632,-254.63215686274512,893.559486461251,-2.318633053221296,-0.8493202614379123,-0.43022408963585307,-23.48,-14.4,34.68,961.4639197012136,-90.82218860877683,-184.0769000933707,-5.5499551820728295,3.1680877684407203,-2.9893576097105545,-103.56000746965454,-6.390007469654528,17.189977591036417
1.1866667000000004,1.72035726,12.6501201,367.0928766653544,-252.94976526531707,910.2768885999627,-0.8889779644862609,0.49389594513394763,-0.5538959451339477,-23.488313542465242,-14.39,34.69,997.4370039885623,-69.89322601164459,-208.12442250792498,-4.329806425211905,3.48035485775855,-1.8635397095083124,-103.53831354246525,-6.388313542465243,17.213372915069517
1.2033333000000002,1.61996631,12.82684025,365.7443680148354,-251.4752116320991,910.1508436172637,-1.2360333278080546,0.25216584132772313,-0.3121658413277232,-23.486586898866626,-14.39,34.69,986.5608759608809,-72.2103817209871,-193.2424813314546,-6.203214729710146,4.238351397550925,-1.5907300209270017,-103.53658689886663,-6.386586898866627,17.21682620226675
1.2200000000000002,1.62722026,12.87215027,364.3958512732321,-250.00064915152393,910.0247978782918,-1.5830907734703634,0.01043428713507022,-0.07043428713507027,-23.484860244908106,-14.39,34.69,975.68468267617,-74.52755133331954,-178.36045086297977,-8.076634274703206,4.996352485340744,-1.3179186954810076,-103.53486024490812,-6.384860244908108,17.220279510183786
1.2366667000000002,1.49365789,12.85675248,363.0473345316288,-248.52608667094873,909.89875213932,-1.9301482191326724,-0.2312972670575828,0.17129726705758275,-23.48313359094959,-14.39,34.69,964.8084893914591,-76.84472094565197,-163.47842039450495,-9.950053819696265,5.7543535731305635,-1.0451073700350137,-103.53313359094959,-6.383133590949589,17.223732818100824
1.2533333,1.50849097,12.95089493,361.69882588110977,-247.05153303773076,909.772707156621,-2.277203582454466,-0.4730273708638073,0.41302737086380725,-23.481406947350973,-14.39,34.69,953.9323613637778,-79.1618766549945,-148.5964792180346,-11.823462124194506,6.512350112922938,-0.7722976814537033,-103.53140694735097,-6.381406947350973,17.227186105298056
1.27,1.22689552,12.85231126,371.1365973821261,-262.10527036424605,889.486307314284,-1.2293373410190236,-0.3775708170424516,-0.5560566536339613,,,,984.1887157891483,-44.66114729017602,-158.22792779984238,-6.235522724814168,4.823028326816981,-1.4569716731830193,-103.47974763943192,-6.37,17.24
1.2866667,1.02686193,12.88638063,369.06063264769966,-261.036380333493,890.3671757251697,-1.3246359702668875,-0.4548399758920709,-0.6178719807136568,,,,979.7869493733483,-69.37182429028428,-153.51193347138727,-5.169208332689421,4.853935990356828,-1.4260640096431716,-103.4771720008036,-6.37,17.24
1.3033332999999998,0.76952048,12.79675658,366.98468036903677,-259.96749671606733,891.2480388508553,-1.419934027724118,-0.5321086711276631,-0.6796869369021306,,,,975.3852093680941,-94.08235302662666,-148.79596743884161,-4.10290033843825,4.8848434684510655,-1.3951565315489347,-103.47459637762908,-6.37,17.24
1.3199999999999998,0.52199875,12.702168,364.9087156346103,-258.89860668531423,892.128907261741,-1.5152326569719818,-0.6093778299772825,-0.741502263981826,,,,970.9834429522941,-118.79303002673493,-144.07997311038653,-3.0365859463135028,4.9157511319909135,-1.3642488680090872,-103.47202073900075,-6.37,17.24
1.3366666999999999,0.4853856,12.69680312,370.01658331200383,-247.28881904274425,895.7425559252622,-0.5790529818275312,0.34094701817246886,-0.11909879703099813,-23.47,-14.37,34.71919042743793,1013.0777583823888,-74.01243562836203,-195.5777071922168,0.09760685948288339,4.213956232403409,-2.3509470181724685,-103.4424287176862,-6.379190427437932,17.24919042743793
1.3533332999999996,0.41605649,12.70395203,370.0071381336371,-249.08963826853318,894.9217104829281,-0.8772039629485211,0.846611858868662,-0.21194079558739434,-23.479802631973378,-14.37,34.72,1002.7291441589979,-65.48782883179958,-160.7099326118897,-9.233059594112321,5.076348721484437,-1.0627302077400707,-103.42039473605324,-6.389802631973381,17.22059210407986
1.3699999999999997,0.33839935,12.78615993,369.3926100902305,-251.8924856860217,893.8225546329326,-1.2719008363559992,1.2712857100032902,-0.3668218471776705,-23.489794957882427,-14.37,34.72,988.0903867022395,-62.560077340447904,-120.21103570250976,-18.950596540663522,6.020623519889669,0.3411915824814651,-103.40041008423515,-6.399794957882431,17.19061512635271
1.3866666999999997,0.4078642,12.91100439,365.66280075901335,-259.7046656482165,893.1594656675136,-1.8575309555205255,0.7523467179107927,-0.20986641687839974,-23.49787542212073,-14.37262514070691,34.72,985.419497941659,-85.44372977840634,-108.74292985559468,-16.3148480365356,5.142201878236274,-0.32041200591771923,-103.39212457787927,-6.4052502814138235,17.158498311517064
1.4033333000000003,0.45584982,12.93672267,361.86774952561666,-267.62174286816986,892.5055161611938,-2.447157559579339,0.21364241147524066,-0.04637904029845602,-23.505915784903355,-14.375305261634452,34.72,982.9993487440902,-108.86798668510647,-97.88307985720235,-13.420317434792334,4.225600521017573,-1.0252838098607553,-103.38408421509665,-6.410610523268903,17.126336860386584
1.4200000000000004,0.94894028,13.34598516,358.07267552182157,-275.53886759077625,891.8515627311614,-3.0367877014119067,-0.32506512719905944,0.11710931720966489,-23.513956195928344,-14.377985398642782,34.72,980.5791850255683,-132.29238413790938,-87.0231646994498,-10.525769465796097,3.308993664168764,-1.730159843051506,-103.37604380407166,-6.415970797285563,17.094175216286622
1.4366667000000004,1.322606,13.30860254,353.7772408090421,-282.6964027364665,893.6447790600835,-2.248976799523978,0.01846210588942132,-1.439115645449294,-23.539696371207615,-14.384924092801905,34.72,977.7998019036287,-101.33367269482,-106.14932230815245,-6.670884354550706,1.8419933372991544,-2.4077227840571225,-103.36015181439619,-6.415075907198096,17.079848185603808
1.4533333000000002,1.37145827,13.29078023,354.3252692824818,-279.62140663737125,894.0135283826327,-1.0897947465075108,0.7534017511641631,-3.133401751164163,-23.566099708139305,-14.387966763953566,34.71796676395356,981.1773910277432,-50.1781522430642,-135.96758591854137,-7.432747392929784,1.1009970813930616,-1.7426391093329747,-103.34796676395356,-6.40593352790713,17.065601167442775
1.4700000000000002,1.47967769,12.92283093,357.06078556437336,-273.8169744867842,891.3435989047025,-1.2373650554207398,0.7042116481930867,-3.0842116481930866,-23.574298058634486,-14.385233980455173,34.715233980455174,987.0474099822916,-48.71064750442709,-138.23579622220768,-10.783139961959762,1.1829805863448555,-0.6440601429789365,-103.34523398045518,-6.400467960910343,17.032807765462056
1.4866667000000002,1.5805991,12.63987941,359.7963018462649,-268.0125423361972,888.6736694267724,-1.3849353643339688,0.6550215452220104,-3.0350215452220106,-23.582496409129664,-14.38250119695678,34.71250119695678,992.91742893684,-47.243142765789976,-140.504006525874,-14.133532530989736,1.2649640912966496,0.4545188233751021,-103.34250119695677,-6.395002393913557,17.000014363481338
1.5033333,1.57673549,12.5722528,362.674268776058,-262.5519863784339,886.3776103146953,-1.574446427551542,0.5265154777543024,-2.9161948426523545,-23.591209920612258,-14.37959669312925,34.70959669312925,997.4236968416243,-45.09257964475417,-144.25372351362148,-16.334100148495107,1.357342195442343,1.4232990747615533,-103.34,-6.388386772516991,16.96798346564624
1.52,1.60464721,12.50857248,367.0910537437889,-260.80526215089384,888.1195750756754,-2.2169744131589453,-0.45869410017704937,-2.0452124621623184,-23.605488320292423,-14.374837226569193,34.7048372265692,987.2003626706265,-35.56412759152438,-164.00550973784908,-6.115525444057367,1.5619992575247013,0.9901876177965628,-103.34,-6.369348906276771,16.944186132845964
1.5366667,1.37617467,12.38818619,371.50783871151975,-259.0585379233537,889.8615398366554,-2.859502398766349,-1.4439036781084011,-1.1742300816722828,-23.619766719972585,-14.370077760009137,34.700077760009144,976.9770284996287,-26.03567553829459,-183.75729596207665,4.103049260380374,1.7666563196070593,0.5570761608315724,-103.34,-6.350311040036552,16.920388800045693
1.5533332999999998,1.4454483,12.37258319,369.7922158621672,-262.1398326356258,899.0108050121031,-2.929697081019511,-2.0713790402961676,0.5205380606578395,-23.62,-14.327724191940765,34.71,992.3798644453937,-71.51936235227109,-135.6904702833547,-0.9563091841093971,2.1461100099672477,4.616648070625088,-103.3050896767763,-6.2454483838815325,16.992275808059233
1.5699999999999998,1.61244216,12.44384291,365.8527708956287,-262.95145322511746,896.808512886231,-2.6971274384166346,-2.1900370212160025,0.4635822298163187,-23.62,-14.3039925957568,34.71,991.3356742132992,-72.91003388865155,-135.11141933646593,1.5639863306278992,2.293245906307843,4.706828136124162,-103.29559703830273,-6.197985191513599,17.0160074042432
1.5866666999999999,1.81914766,12.6130058,363.98548244487944,-263.5364621618152,895.1346385634969,-2.473293703263907,-2.2534147116402967,0.4629264417985163,-23.6178049038801,-14.285609807760197,34.71109754805995,989.8891561186175,-72.6050132385507,-131.79564475753403,2.213668378317686,2.1989045701081604,4.833535720016686,-103.28560980776021,-6.159024519400495,17.034390192239805
1.6033332999999996,1.98154187,12.65742208,365.09537669694146,-263.7958832279598,894.2199787220386,-2.262012628774998,-2.237368047755063,0.5431597612246842,-23.612456015918355,-14.274912031836708,34.713771992040826,987.8646020250972,-69.86370815815663,-124.5479015693702,0.17574206489301902,1.7576213132642362,5.012723466735128,-103.2749120318367,-6.132280079591772,17.04508796816329
1.6199999999999997,2.00030705,12.5866929,366.20527760839565,-264.055305850637,893.3053133925993,-2.050730286594568,-2.221321287589461,0.6233935620526958,-23.607107095863157,-14.264214191726307,34.716446452068425,985.8400357842037,-67.12238662986623,-117.30011489457316,-1.8621964761384726,1.316335408710173,5.191912288584354,-103.26421419172631,-6.105535479315768,17.055785808273694
1.6366666999999997,2.09373596,12.54656876,367.3151785198498,-264.3147284733143,892.3906480631599,-1.8394479444141376,-2.2052745274238585,0.7036273628807073,-23.601758175807955,-14.253516351615906,34.719120912096024,983.8154695433101,-64.38106510157583,-110.05232821977611,-3.9001350171699647,0.8750495041561099,5.371101110433579,-103.2535163516159,-6.078790879039764,17.066483648384093
1.6533333000000003,2.25234429,12.40976664,363.1933779084707,-274.52455734147935,888.7304020041682,-1.030822251406053,-1.7835656208068027,0.30650809375624033,-23.577157078824904,-14.197157078824906,34.73,985.6087757444258,-124.16572843806162,-119.87757806834745,5.642466754218158,-1.8356858423501874,3.8864343791931972,-103.17052359608303,-5.937680674907927,17.136633482741885
1.6700000000000004,2.31408288,12.60679627,368.88423730265237,-271.3841165386701,890.2387652382448,-0.6834704656407846,-1.5504116824164171,-0.012294230165307285,-23.562882347903045,-14.182882347903046,34.73,984.4477642961144,-95.47351928512234,-130.9119450709455,4.600411396922354,-1.8642353041939081,4.119588317583583,-103.12294115967683,-5.875823507579866,17.169941188226225
1.6866667000000004,2.44199548,12.61542525,373.80377170891245,-268.283259362224,891.6794609430362,-0.38595126737531055,-1.3544742981738929,-0.27134679749249774,,,,983.5731007904061,-70.55361809757451,-140.97102469337696,3.6868808394658013,-1.8829105478331951,4.317298064867808,-103.07586448623603,-5.815569092395747,17.20502169528482
1.7033333000000002,2.56431975,12.69982736,371.58700943036246,-265.5486468792586,892.4940907967657,-0.5494829108748994,-1.5028641228309274,0.022404488053060112,,,,985.3477219587535,-80.53510507858645,-142.0067251022077,3.9624619424002936,-1.8102298173889335,4.187078422821839,-103.03346739347688,-5.7701436358680835,17.256503879349506
1.7200000000000002,2.61710314,12.74338102,369.37023385118556,-262.8140179885527,893.3087255382939,-0.7130155355682769,-1.6512548378304737,0.3161575361133862,,,,987.1223537748706,-90.51665194876001,-143.04243172526574,4.2380446988280225,-1.7375486508585436,4.05685799945489,-102.99107004633414,-5.72471790678659,17.30798637230853
1.7366667000000002,2.66345997,12.78241851,367.15345827200866,-260.0793890978468,894.1233602798219,-0.8765481602616544,-1.7996455528300197,0.6099105841737122,,,,988.8969855909876,-100.49819881893357,-144.0781383483238,4.513627455255751,-1.6648674843281535,3.9266375760879417,-102.94867269919142,-5.679292177705096,17.35946886526756
1.7533333,2.65202843,12.7719054,370.7793204567361,-264.08097516126645,889.964937347075,-0.8510218729146586,-1.5940874916586343,0.8469343812560244,,,,980.6197043819975,-94.86301379105807,-165.16825698821089,3.1938437013420327,-0.26401401349447595,4.3816547045302885,-102.86136249721955,-5.591362497219545,17.448637502780453
1.77,2.67428481,12.652837,368.35835031757233,-269.25929795342273,891.1381448129852,-0.7664810162314749,-1.5575203952011292,0.938158927311221,-23.486800282286524,-14.120720112914608,34.779279887085394,982.7342924488356,-94.8413586450247,-158.7324827099506,2.0100141143260397,0.23791418489767163,4.218322088920254,-102.77184107268877,-5.515760903316866,17.524239096683132
1.7866667,2.61234942,12.77412688,365.83188090331686,-274.42985640084686,892.4037319124913,-0.681794890613973,-1.5245869019054339,1.0275498376852508,-23.463276358503883,-14.111310543401553,34.78868945659845,985.0302274100212,-94.95427347918137,-151.83997304163725,0.8338179251940696,0.7225070148200433,4.044245052928722,-102.68245016231475,-5.44048434721242,17.59951565278758
1.8033332999999998,2.39738814,12.69223645,365.91764541221386,-278.71002788531865,893.6421219068349,-0.5445928350966105,-1.553271288647838,0.9606607732243863,-23.4395253608321,-14.115118659791975,34.79,987.3488366487662,-99.4693019571461,-143.3197394872528,1.2330525771172591,0.6031689175929096,3.7717450000892083,-102.60601675260031,-5.394169381456174,17.66118659791975
1.8199999999999998,2.14653959,12.52501843,366.4261119337746,-282.84615029169856,894.8761196053595,-0.39889190201780717,-1.5919266382401736,0.8684826318888168,-23.415737453390662,-14.121065636652334,34.79,989.6711311127366,-104.69669461740193,-134.5360546645021,1.8872200317567844,0.3861042621897944,3.483316622361781,-102.53167954184582,-5.352540543433659,17.720656366523343
1.8366666999999999,2.06347162,12.36519964,366.9345784553353,-286.9822726980785,896.110117303884,-0.25319096893900384,-1.6305819878325092,0.7763044905532472,-23.391949545949224,-14.127012613512694,34.79,991.9934255767068,-109.92408727765778,-125.75236984175137,2.5413874863963097,0.16903960678667918,3.1948882446343543,-102.45734233109133,-5.310911705411144,17.780126135126935
1.8533332999999996,1.9455942,11.90701902,367.7874211776936,-279.28569681443577,895.3750241330661,-0.14304611271998396,-1.3482099205465357,0.5082766763199038,-23.349205093933318,-14.166953887280016,34.79,992.1129731937328,-115.10597720353444,-130.96032865523085,4.4097453033340015,-0.16172332368009615,2.5264865968664396,-102.23523056359993,-5.209933244226632,17.957815549120063
1.8699999999999997,1.66133713,11.79275859,369.9827969975732,-273.66678142107344,893.1061425588351,0.03892714035780309,-0.9816123934759352,0.467302330831308,-23.313782944861448,-14.20621705513855,34.78026976691687,989.8739720074498,-111.63054856368885,-142.50298944635685,4.578607709238695,-0.06323099497715051,2.394604661662616,-102.03242790225183,-5.1405395338337385,18.101894576443364
1.8866666999999997,1.79985118,11.45946779,372.6259160787854,-274.3581310739884,891.041499717817,0.26937702466278635,-0.7229441559907499,0.6083940967323183,-23.290267650544614,-14.229732349455386,34.76616059032677,987.5741762232633,-104.27966756024622,-150.54051704385108,3.4310613465771453,0.28009230204864094,2.6767881934646365,-101.90544531294091,-5.112321180653536,18.17714351825724
1.9033333000000003,1.91519072,11.20114432,374.4693095438681,-275.94633447667195,889.9102301520439,0.6901710996108738,-0.38023015204396116,0.5099144501945632,-23.281883359409477,-14.253183515866331,34.75434992177157,987.3986781401694,-107.64669105788924,-150.37179907329391,3.4912411040237674,0.38291601476310677,2.5834136679102913,-101.81421617121995,-5.0905832029526215,18.16668273358206
1.9200000000000004,1.96683301,10.94796734,375.6928848236852,-278.2296730452923,889.5023717254383,1.2584984153729017,0.02762827456172956,0.225750792313549,-23.285226461266898,-14.276585228868296,34.744320616199296,988.8696429574358,-119.32080274401278,-143.84272114574543,4.487485457536028,0.29933846832751443,2.198956954306566,-101.75069723592891,-5.073867693665503,18.089791390861315
1.9366667000000004,1.96864184,10.84295226,376.91646010350223,-280.5130116139127,889.0945132988326,1.8268257311349299,0.4354867011674203,-0.058412865567465055,-23.288569563124323,-14.299986941870262,34.73429131062703,990.3406077747022,-130.99491443013633,-137.31364321819697,5.483729811048289,0.21576092189192206,1.8145002407028414,-101.68717830063785,-5.057152184378384,18.01290004814057
1.9533333000000002,2.0924957,10.69397656,372.1920003007518,-279.8601567418546,889.268910726817,2.6817886716792096,0.61,-0.29948997493734564,-23.294779598997494,-14.319559197994987,34.73,987.7007542857142,-121.2831738847115,-117.25130882205481,6.7846666165413705,-0.6038542355889873,1.8794207518797035,-101.63610200501253,-5.026102005012531,17.893967218045113
1.9700000000000002,2.08583994,10.64253339,368.6720021189395,-277.1003741600914,890.0753179803162,3.3081654445590645,0.5350464215016568,-0.4195413611397661,-23.301743106476707,-14.331743106476706,34.73,986.0875085733404,-109.77473722363187,-104.04986672986325,8.527884127470955,-1.534953578498343,1.9504600328993176,-101.62568795829036,-4.993027574093177,17.745963699222123
1.9866667000000002,2.33054095,10.74135276,374.56879925837126,-274.48886904396795,891.2091387068893,3.1966420944043255,0.3352337524744162,-0.39166052360108133,-23.306389912733152,-14.336389912733154,34.73,991.305871999331,-121.91684197172907,-119.13804664454815,10.628240555385206,-1.7347662475255836,1.4718389884852296,-101.66750921459838,-4.974440349067388,17.60191270527225
2.0033333,2.59760344,10.75787487,378.1658605136855,-271.4758605136855,892.5454818563368,3.00546318051288,0.14415880474727322,-0.3289319637729172,-23.310746691567765,-14.337759925296705,34.73149338313553,994.2660968532241,-127.922685703958,-133.1754905516397,11.353516436733118,-1.816824226359016,1.2545651545273844,-101.70970699038095,-4.955519850593409,17.466105869831516
2.02,2.77789266,10.92573466,373.7546087113681,-267.06460871136807,894.5871082595338,2.536893186336522,-0.01649376468462102,-0.14485089463220507,-23.314093620097594,-14.327719139707211,34.73818724019519,989.3628465570215,-112.56028375203311,-143.55431592264605,7.290345201518127,-1.4888252304355654,1.947379360202428,-101.75321706126876,-4.935438279414423,17.359004156876917
2.0366667,3.12462173,10.92870559,369.3433569090507,-262.6533569090507,896.6287346627307,2.0683231921601637,-0.17714633411651526,0.03923017450850713,-23.317440548627427,-14.317678354117717,34.744881097254854,984.4595962608189,-97.19788180010823,-153.93314129365237,3.227173966303134,-1.1608262345121148,2.640193565877472,-101.79672713215656,-4.915356708235436,17.251902443922322
2.0533333,3.28702256,11.12203237,366.2574478084049,-261.05784500677805,896.9890194306372,1.6863741527338458,-0.40828513330320654,0.18,-23.318031179394488,-14.308031179394488,34.75590646181654,981.4798088567555,-94.87080659737897,-156.53449615906018,1.7049005874378413,-0.9592205151378211,2.8451446000903804,-101.84968820605513,-4.8803117939448715,17.17
2.07,3.51550491,11.17295648,367.51840228285863,-268.3193355859053,892.1039081177773,1.6016218518413297,-0.8477137340640007,0.1731412021920022,-23.311143132968,-14.301524177290666,34.780571566484,984.5409333030467,-133.37906669695332,-134.56995173060008,8.208294954427988,-1.1472350151906707,1.5119980692240027,-101.93095261080667,-4.798094778386667,17.170762088645336
2.0866667,3.59206876,11.11426191,369.71419114682413,-268.5512184616258,892.4493662795651,1.8902923705954147,-0.7909260910304102,0.0027782730912307985,-23.339536954484796,-14.339382605979727,34.7947684772424,982.5770273148017,-135.3429726851983,-129.6010329651609,9.159487975240628,-0.8301706749197906,1.313241318606436,-101.95461412873733,-4.750771742525342,17.189691302989864
2.1033332999999996,3.90889305,11.05658274,371.90996683608273,-268.78309994605183,892.7948223686079,2.178961157329846,-0.7341387887219974,-0.16758363383400748,-23.367930605639003,-14.37724080751867,34.8089653028195,980.6131331099691,-137.3068668900309,-124.63214401317478,10.110675288906542,-0.5131082370311527,1.1144857605269913,-101.97827550469917,-4.7034489906016645,17.208620403759333
2.1199999999999997,3.88718879,10.92650622,369.96328609769193,-269.68913279656465,894.8470900697799,2.057340633387013,-0.9323772410091213,-0.1999059581320447,-23.363364680622652,-14.389952979066022,34.81663531937735,980.7951306494901,-135.668416747182,-130.9119546967256,8.866206763285048,-0.38715254965110224,0.7748693505099362,-101.97336468062265,-4.666823403113259,17.22658829844337
2.1366666999999997,3.82723914,10.77245454,367.69096092324213,-270.64816137412777,897.03353208803,1.9034666451959237,-1.1506635963499687,-0.22137674718196412,-23.356207750939348,-14.400688373590983,34.82379224906065,981.1458202039721,-133.7467811272142,-138.07604130971535,7.449134685990367,-0.276220139559852,0.4241797960279192,-101.96620775093935,-4.631038754696727,17.24448062265164
2.1533333000000003,3.7013098,10.57809502,366.62231801029174,-270.73975801886786,898.883557161235,1.8278165951972614,-1.2764965265866146,-0.2058787307032556,-23.366112821612354,-14.378722169811319,34.98449352487137,979.9221253859347,-131.895176457976,-143.8966575900514,5.867413550600308,-0.2558250428816542,0.09156560891937968,-101.95526093481989,-4.590521869639793,17.274217195540313
2.1700000000000004,3.69067076,10.45161519,373.426219554031,-265.15798584905656,898.5333563464837,2.2637808747855983,-0.7976505145797528,0.05141166380789408,-23.48761106346484,-14.142872641509431,36.14944725557463,968.4012332761577,-130.5015201543739,-140.9306710977701,3.208746140651761,-0.8275814751286534,-0.12284305317324504,-101.91952615780446,-4.519052315608918,17.381421526586625
2.1866667000000004,3.24843573,10.1695888,369.70108184650223,-263.4815229239435,898.6284770760566,2.099207621385183,-0.9277135529752429,-0.01847295383744396,,,,972.1844112149535,-131.06853890934266,-125.58110749236873,0.3652086283394054,-1.51850593159006,-0.5107965008338939,-101.87538176154064,-4.453842348720852,17.44846470939929
2.2033333,2.98225514,9.93048676,362.1489549702633,-263.22454082884923,898.8854591711507,1.716356745020291,-1.2790972340224727,-0.20727612574341814,,,,981.5301682242991,-132.34820485226095,-105.73055177947674,-2.5455069385443627,-2.2527404890021816,-0.9618263003870544,-101.82818096856414,-4.390907958085527,17.50091003492873
2.22,2.75283397,9.80224753,364.8445858227031,-261.1443355401259,897.639633457129,1.5471043920555445,-1.306628451477474,-0.4096387049895077,,,,986.818089375101,-138.74929840142107,-108.199545050864,-1.183974245115415,-2.38,-1.343124899079612,-101.79219037623122,-4.352190376231229,17.565619247537544
2.2366667000000002,2.62926672,9.68186352,369.68877442273543,-258.6818730017762,896.078728241563,1.4226356571936034,-1.2662602131438714,-0.6148439165186539,,,,991.2552315719362,-146.22415053285982,-115.34808725577278,1.073283081705192,-2.38,-1.7098030639431683,-101.7585501776199,-4.318550177619893,17.632899644760215
2.2533333,2.36866446,9.62130372,374.5329339576942,-256.2194252381721,894.5178323914096,1.2981676691425799,-1.225892217019215,-0.8200478968189897,,,,995.6923471459713,-153.69895781527532,-122.496586569514,3.3305268650088866,-2.38,-2.076479028742129,-101.72491018084935,-4.284910180849346,17.700179638301307
2.27,2.19542208,9.52755528,367.20606063527254,-259.5442232611944,894.6261767966453,1.4034935171350078,-0.9249877090663704,-0.9803542680869526,-23.289417747144167,-14.473139249048055,34.94058225285584,989.4723882971032,-119.94424591507197,-131.07310454523548,-1.6982464934689476,-2.5858225285583463,-1.7595194485949768,-101.65139249048056,-4.218253241432497,17.730582252855832
2.2866667,2.05756041,9.45149992,368.53636226812336,-258.8322615796062,895.2017708546716,1.2664476214862854,-1.0211073176283159,-0.8811137191305329,-23.282888841470353,-14.493110731762831,34.955777682940706,986.6102176226243,-111.47632172527602,-136.70685299305794,-2.5293599351314358,-2.4171154261977907,-1.7459974393991131,-101.55644548765221,-4.161111585296461,17.852664817343804
2.3033333,2.01387684,9.32469487,376.75396150563324,-254.89653892113355,895.8940786958007,0.948744708091502,-1.4004540798907439,-0.6203128200751136,-23.287630675998635,-14.531045407989074,34.96526135199727,987.0701755718675,-123.74818948446556,-140.29642173096616,0.13080923523384147,-1.985608484124279,-2.002056503926252,-101.45212512803005,-4.113693240013657,18.037596363946736
2.32,1.98819361,9.21018067,378.37737838339393,-258.3263306911269,895.2695005434639,0.6971503936799142,-1.629792688422894,-0.5828496063200859,-23.28336788526285,-14.561053524561915,34.97,984.8173783833938,-123.99731422814884,-142.19832454070678,0.4099151666180769,-1.8650603112324688,-2.2117960817581706,-101.36020731157711,-4.087789295087617,18.138842819649533
2.3366667,1.56368974,9.23396273,373.41549929747356,-269.111679621431,893.3298167333846,0.5115769995493229,-1.7093241430502901,-0.7684230004506771,-23.27011264282495,-14.583145595291747,34.97,979.8554992974736,-112.23991418573209,-142.41482683385914,-1.6888315527159912,-2.0550521195090266,-2.3752774051589296,-101.28067585694971,-4.083370880941651,18.1565164762334
2.3533332999999996,1.52433619,9.10466643,369.90402148703953,-274.4066224420193,891.7668951227831,0.34192402796725957,-1.8452436050477443,-0.8493559004092807,-23.26,-14.603369116643929,34.97224607776262,977.1402560538882,-105.60030567871745,-141.45583807980907,-3.20127992837654,-2.062989256480227,-2.3832039563437997,-101.20090833901773,-4.071015688949523,18.171123038881312
2.3699999999999997,1.20265973,9.12999746,371.05985220554794,-262.03354934060957,891.4163562983174,0.22349874943156162,-2.162623351523415,-0.5935572987721731,-23.26,-14.617580150068212,34.98172010004548,981.6546276716689,-115.42960379718038,-136.71408992723974,-2.8270560482037346,-1.485073897226021,-1.8905547976352963,-101.12037914961346,-4.033119599818099,18.175860050022738
2.3866666999999997,0.94282609,9.17350406,371.88078265547665,-252.04015709059598,890.7632091672048,0.12387475790832743,-2.3689627716806636,-0.38937378954163715,-23.26064579298472,-14.631937378954165,34.99193737895416,985.0162031418121,-123.67320916720469,-132.44407036797935,-2.4018394663223717,-1.0626615020443184,-1.538786744135991,-101.03708414030557,-3.997416828061115,18.194853238648587
2.4033333000000003,1.03881644,9.13782465,370.3795641120231,-258.54714531648693,888.0118291063359,0.15461643456607993,-1.8053653662885347,-0.5430821728303996,-23.265769405761013,-14.64730821728304,35.00730821728304,980.3844571920439,-120.92182910633585,-131.4449658766024,-1.6230503243259753,-1.718483937409705,-2.163867502843625,-100.93461188477973,-3.9769223769559465,18.312696332503307
2.4200000000000004,0.70238262,9.18218293,369.5497286374134,-263.4319996150885,886.5786258660509,0.20955157813703038,-1.3160392609699754,-0.6995515781370304,-23.267603926096996,-14.660798691301,35.02,977.4768976135489,-118.41598344880677,-130.48342378752886,-1.257145881447285,-2.255207852193995,-2.5825596612779,-100.83642224788298,-3.955207852193995,18.401214395688992
2.4366667000000004,0.58192701,9.12187679,371.90044267568464,-260.6322212966017,891.3900288683604,0.3790962553612709,-1.1785706037611319,-0.8690962553612709,-23.253857060376113,-14.665380979874628,35.02,982.7373648960739,-117.07337289673372,-129.69985244143845,-2.8472000164962434,-2.227714120752226,-2.023520455295269,-100.75852334213131,-3.9277141207522264,18.35080922137908
2.4533333,0.52330199,8.91696818,374.2511426096998,-257.8324597767513,896.2014030023096,0.5486399153194799,-1.041102771362584,-1.0386399153194799,-23.240110277136257,-14.66996324095458,35.02,987.9978006158584,-115.7307704003079,-128.91628579676672,-4.437244611239445,-2.200220554272517,-1.464484603541175,-100.68062490377214,-3.900220554272517,18.300404349499615
2.47,0.23160389,8.77013877,377.3598858733118,-260.38912604999115,895.5181823984476,0.8074904894426489,-1.1666346669390077,-1.090653866775603,-23.227336533306097,-14.699548088952435,35.032663466693904,992.7803576990835,-118.19359716087529,-133.13537672019822,-3.9856728878903054,-2.4026154671024123,-1.7976924451706868,-100.59557688870733,-3.857788444353664,18.506836622667045
2.4866667000000002,-0.05997044,8.5157935,380.47475921055997,-262.9891091224756,894.7905275614676,1.0670632675466658,-1.2942934102688521,-1.1417173641075409,-23.214570658973116,-14.729335129062733,35.04542934102688,997.5590499910641,-120.68719794725158,-137.39492345597068,-3.5175908290142095,-2.6068694564301635,-2.1381157607169388,-100.51047105982077,-3.8152355299103826,18.715345903439125
2.5033333,-0.11452228,8.44347504,381.085465592991,-261.4621179024673,894.9008190040585,1.059368820459961,-1.2228267087547493,-1.16,-23.212757018617538,-14.756542111705212,35.0541355279263,998.023827584874,-122.85925663853638,-141.5446817238936,-3.4092759002770094,-2.663457888294788,-2.3096263351156354,-100.46070086967725,-3.7848363976035557,18.849275900277007
2.52,-0.13042561,8.41266273,380.2995334664691,-257.63338298009404,895.4784576434968,0.9026118662629632,-1.0403014881144093,-1.16,-23.217051729691427,-14.782310378148553,35.060577594537136,996.0826181794756,-124.85200257682152,-145.63324666623723,-3.5016121883656517,-2.6376896218514463,-2.386931134445662,-100.43063789216002,-3.7612154866971585,18.94161218836565
2.5366667,0.20974066,8.34529378,379.5136013399472,-253.80464805772078,896.056096282935,0.7458549120659652,-0.8577762674740692,-1.16,-23.221346440765316,-14.808078644591896,35.067019661147974,994.1414087740771,-126.84474851510664,-149.72181160858085,-3.5939484764542944,-2.611921355408104,-2.4642359337756883,-100.40057491464279,-3.737594575790762,19.03394847645429
2.5533333,0.19264275,8.34820191,378.7276739290086,-249.9759361077112,896.6337314565484,0.5890988984088141,-0.6752521419828659,-1.16,-23.225641126070993,-14.833846756425949,35.07346168910649,992.2002110159119,-128.83748249694003,-153.8103520195838,-3.6862842105263147,-2.5861532435740515,-2.5415402692778453,-100.37051211750307,-3.7139738066095473,19.126284210526315
2.57,0.25898148,8.29493807,377.94174180248666,-246.14720118533793,897.2113700959866,0.43234194421181615,-0.4927269213425258,-1.16,-23.229935837144883,-14.85961502286929,35.07990375571732,990.2590016105135,-130.83022843522514,-157.89891696192743,-3.7786204986149574,-2.5603849771307097,-2.6188450686078717,-100.34044913998584,-3.69035289570315,19.218620498614957
2.5866667,0.21945933,8.28043741,373.54,-255.47971054497333,894.893724346552,1.4266300515195907,1.1951048352791014,-0.7526485324006256,-23.217780829040034,-14.865187219360022,35.276283074159856,989.8013177671692,-131.48754814009533,-149.37188481353692,-6.438402420002843,-2.4711233161601363,-3.185561658080068,-100.26778082904003,-3.5107488774400912,19.774757857919365
2.6033332999999996,0.18634714,8.256001,373.54,-252.91031199207418,895.044581598369,1.667674755190532,1.4304980472676099,-0.6581548114751734,-23.05750976366195,-15.185847557648673,33.656684806019044,993.7721694713265,-139.69576112052394,-146.4506239841484,-4.958526921862005,-2.5668076702179565,-3.434851463113454,-100.25357935846998,-3.491605160382506,19.92
2.6199999999999997,0.1009926,8.06944069,373.54,-253.61147833328548,892.5318694540965,1.8878362002125002,1.4759661717830164,-0.7299465870258153,-22.83016914108492,-15.671638572208018,31.191833845447007,989.2133917238607,-129.9392588231917,-147.85295666657092,-3.7189222640209225,-2.7558593458346468,-3.8297062286419843,-100.2440071217299,-3.493998219567527,19.92
2.6366666999999997,0.05080426,8.06420724,373.54,-254.31264467449674,890.019157309824,2.1079976452344686,1.5214342962984229,-0.8017383625764571,-22.602828518507888,-16.15742958676736,28.72698288487497,984.654613976395,-120.18275652585947,-149.25528934899347,-2.479317606179839,-2.944911021451337,-4.224560994170514,-100.23443488498981,-3.4963912787525486,19.92
2.6533333000000003,-0.1008918,7.95831453,373.54,-255.01380680871839,887.5064602417942,2.3281577692904167,1.5669021480056298,-0.8735297073773098,-22.375489259971854,-16.643217686586464,26.262146713379032,980.0958635815408,-110.42631276742358,-150.6576136174368,-1.2397203859517836,-3.1339615627602493,-4.619413390575204,-100.22486270568302,-3.4987843235792435,19.92
2.6700000000000004,-0.13758777,7.95474631,373.245481393435,-252.76177470970097,895.0985919356315,2.253916064734391,1.9365209838164021,-0.85,,,,975.1802358964982,-106.44318277406951,-150.318225290299,-0.7794056871171102,-2.5991259028984137,-5.067395080917989,-100.11753497302733,-3.678190545853527,19.961013989210933
2.6866667000000004,-0.30630915,7.83316101,369.2783079759836,-251.2734497272256,899.685477461827,2.375826643503706,1.9060433391240734,-0.85,,,,975.9269381914603,-100.36797226539866,-151.80655027277442,-0.19017122306542145,-2.416260034744441,-5.219783304379632,-100.06673889854012,-3.764543872481792,19.94069555941605
2.7033333,-0.39747117,7.8056979,368.2407182348253,-251.05619585553086,900.8870385083267,2.433377826251101,1.822674566886194,-0.7087269600234891,-23.406622173748897,-15.128829564998531,35.46,977.613531272285,-97.68211476991485,-153.50606736859768,0.4157904274508195,-2.4071919543605027,-5.509702168715133,-100.03448152187592,-3.8287628256218804,19.9432443474978
2.72,-0.82652353,7.41910627,370.459309394969,-252.25171819287723,898.3258707719842,2.419395108855237,1.680516940028244,-0.41042898891172513,-23.420604891144762,-15.147473188193016,35.46,980.344822070277,-98.763444915195,-155.44034327502553,1.0403518044660753,-2.5912977334060443,-5.952488219584158,-100.02282925737937,-3.8683805249101617,19.971209782289527
2.7366667000000002,-0.96883456,7.31355903,372.6779005551128,-253.4472405302236,895.7647030356419,2.405412391459373,1.538359313170294,-0.11213101779996115,-23.434587608540628,-15.166116811387502,35.46,983.0761128682691,-99.84477506047514,-157.37461918145337,1.6649131814813312,-2.7754035124515863,-6.395274270453182,-100.01117699288281,-3.9079982241984426,19.999175217081255
2.7533333,-1.43476603,6.85143315,374.8964784037361,-254.64275569445027,893.2035506662752,2.3914297579596457,1.3962025392564017,0.18616516352755086,-23.448570242040354,-15.184760322720471,35.46,985.8073872785491,-100.92609871778737,-159.30888348224894,2.2894708111358093,-2.95950818686466,-6.838057664611208,-99.9995247982997,-3.947615685781003,20.027140484080707
2.77,-1.64756241,6.71941066,375.9158169397178,-246.18806755645528,898.2155152128535,2.4915326712632093,1.1388259851983085,-0.26611550382693083,-23.52282370801442,-15.260705927003606,35.47,985.6083692833197,-82.97500664178659,-163.7057113036877,1.988108672275273,-0.9149452843317158,-7.160358656461518,-100.00282370801442,-4.1827066860649005,20.01588145992789
2.7866667,-1.98212929,6.47979511,368.19340707824654,-254.1634983553672,896.5392515023088,2.8763353469542676,1.4287458093491057,-0.013094566386234963,-23.54390878613448,-15.265977196533619,35.47,987.5376539313049,-104.59248298437605,-157.40127294579037,0.928583496742359,-1.3999020810930496,-7.8350811563033735,-100.02390878613448,-4.277589537605162,19.910456069327598
2.8033333,-2.70751499,6.04788839,362.973410595177,-259.7419884983753,896.111749073599,3.1941910238868916,1.5948669688159214,0.13218053417707482,-23.56281290975429,-15.272250327803432,35.46943741804914,988.85922803717,-119.1946614075596,-153.11207605039618,0.1408155321817439,-1.77,-8.432699546776117,-100.04168774585258,-4.360126475115442,19.826061926343993
2.82,-2.93219647,5.75365808,365.81675474602355,-257.59700957756115,899.7080924690724,3.2963328772589917,1.362078558805088,-0.06972778062823981,-23.57468986944872,-15.281751895558976,35.467062026110256,988.2226229975486,-111.19196596545248,-155.31643976968243,0.2287050339205279,-1.77,-8.781882161792367,-100.04881392166924,-4.402883530015392,19.809434182771792
2.8366667,-3.11144422,5.27394692,368.6600988968702,-255.45203065674707,903.3044358645459,3.3984747306310923,1.1292901487942548,-0.27163609543355444,-23.58656682914315,-15.29125346331452,35.46468663417137,987.5860179579272,-103.18927052334536,-157.52080348896868,0.31659453565931195,-1.77,-9.131064776808618,-100.05594009748589,-4.445640584915341,19.79280643919959
2.8533332999999996,-3.30890156,5.12684863,371.50342598768594,-253.30706460578077,906.9007576820021,3.5006159711532963,0.8965031355110921,-0.4735431987913998,-23.598443717575964,-15.300754974060773,35.46231125648481,986.9494167379283,-95.18662309731499,-159.72515398209904,0.4044835100621387,-1.77,-9.480245296733361,-100.06306623054557,-4.488397383273473,19.77617879539365
2.8699999999999997,-3.46935935,4.71118132,369.96148936170385,-243.83758118701297,903.017581187013,4.028331466965117,-0.31264277715526856,-0.7304703247480165,-23.630156774916003,-15.330156774916006,35.449921612542,991.8630347144435,-88.01478163493817,-159.15891377379725,-1.4450503919365285,-1.2156886898098485,-10.061881298992066,-100.075039193729,-4.615666293393024,19.694490481522983
2.8866666999999997,-3.63285648,4.49445994,367.2282107755722,-237.38101900195863,903.1629982459729,4.796224486216265,-1.7447945157423828,-1.079310872043728,-23.66897120472418,-15.364228403543134,35.43051439763791,997.6609672873973,-84.56964779138781,-151.74245601777423,-7.718119887742191,-2.0880975531323727,-10.878621744087457,-100.06102879527582,-4.775884818896716,19.625257198818954
2.9033333000000003,-3.91716466,4.04623671,368.777595053644,-238.21417847224254,910.7783681410239,5.151900751308215,-2.2222777209343163,-1.3765198058876869,-23.688460315140176,-15.378845236355133,35.42076984242991,998.0215158300932,-80.40872271757237,-146.8653061361709,-12.205487561025569,-3.54490855672817,-11.473039611775373,-100.04153968485983,-4.853841260560705,19.620384921214956
2.9200000000000004,-4.22526626,3.7426621,372.077396964462,-244.40749876604156,910.686276221619,5.3978245310957575,-2.89453232971373,-1.8616932996051392,-23.697102973840078,-15.382367657946693,35.41526468410662,1000.0719798864758,-82.79570366485689,-142.26083353899304,-13.338959464462004,-3.889662820829223,-11.564985500987166,-100.03052936821324,-4.8931472112537024,19.59395576258638
2.9366667000000004,-4.50567376,3.45060742,375.527346279615,-251.06060519496555,909.9330458569842,5.634333724086874,-3.583493891905242,-2.362989958662396,-23.704815230133267,-15.384938410044423,35.41012317991115,1002.2674021779369,-85.74435632095265,-137.67975330083902,-14.184736904615017,-4.139025774308987,-11.61382979084403,-100.02024635982231,-4.929137740621916,19.565677489511355
2.9533333,-5.01399793,2.96741893,378.9772748951135,-257.71367170533074,909.1798200117227,5.870841498025666,-4.2724513203356365,-2.8642836099457054,-23.71252744015301,-15.38750914671767,35.40498170656466,1004.4628112968904,-88.6929912851678,-133.09870054911156,-15.030509270113523,-4.388387231614018,-11.662673787635736,-100.00996341312933,-4.965128054047384,19.53739938610563
2.97,-5.60458693,2.36061745,381.74421636615807,-263.15725381414694,908.5998474341193,5.993259361997218,-5.3905686546463585,-3.6260887656033494,-23.722052704576974,-15.392052704576978,35.39794729542302,1005.0371289875172,-88.16714285714261,-127.70754507628287,-16.27593619972264,-4.749056865464642,-11.71,-99.99794729542302,-5.012316227461859,19.497683772538142
2.9866667000000002,-6.24471906,1.61848499,384.19233251063844,-250.18915063829778,914.4517379574469,5.542064680851073,-9.223257106382976,-6.856066638297889,-23.746886638297873,-15.41,35.369670042553196,1006.0872197446812,-64.72943804255333,-134.26202536170243,-18.36098008510635,-6.609509957446825,-12.212724595744692,-99.96967004255319,-5.164763148936172,19.338350212765956
3.0033333,-6.97952508,0.93995149,394.4665230921986,-244.42085219858154,920.6881196312057,6.2040005673758865,-9.076685588652483,-7.976629531914893,-23.75634286524823,-15.41,35.35548570212766,1026.172245787234,-73.15966436879432,-154.69693180141843,-16.110398070921985,-7.734800964539007,-12.903029163120568,-99.95548570212766,-5.226228624113475,19.267428510638297
3.02,-7.62412516,0.38024244,398.8233974910835,-243.4171862317058,919.6855625076867,6.796258455294553,-8.608319087443117,-8.545131902595008,-23.75685739761407,-15.403714795228138,35.345286096421106,1025.4235475341286,-67.40387375476568,-169.4273036834338,-13.726836951174512,-8.04586720575575,-13.122860964211045,-99.94371479522815,-5.265713011929652,19.21328787971959
3.0366667,-8.70130003,-0.07828185,399.44857809617514,-245.41827661111796,914.1178680205387,7.344572592547045,-7.937018601648011,-8.765482443733859,-23.751732966424793,-15.393465932849587,35.33759944963719,1011.5363390111917,-52.70188067273392,-180.5601304421351,-11.259423333538301,-7.843452173779362,-13.04599449637191,-99.93346593284959,-5.29133516787603,19.169730214610748
3.0533333,-9.27259768,-0.86134087,400.0737549501906,-247.4193549840118,908.5502069394909,7.892883439921283,-7.265722143647775,-8.985831662772105,-23.746608565982044,-15.383217131964088,35.329912848973066,997.6492138113395,-37.99997580248447,-191.69289040400923,-8.792024520354227,-7.641038356290741,-12.969128489730661,-99.92321713196408,-5.316957170089779,19.126172810847375
3.07,-9.75611403,-1.91987539,400.6989355552822,-249.4204453634239,902.9825124523429,8.441197577173774,-6.594421657852669,-9.206182203910956,-23.741484134792767,-15.372968269585536,35.32222620218915,983.7620052884025,-23.29798272045271,-202.82571716271053,-6.324610902718016,-7.438623324314354,-12.892262021891526,-99.91296826958553,-5.342579326036157,19.082615145738533
3.0866667,-10.2718697,-2.63140421,431.0402112326564,-184.47340907150567,951.3592491462106,5.064522305229431,-7.560369983991472,-5.044163527214549,-18.65439389007486,-17.2872002934898,39.83124023479175,981.3102650747065,-4.94076611526165,-243.13409223585936,0.9998379669156634,-3.73131416755602,-12.128788874066165,-99.90584207577375,-5.495315661686232,18.78821093916756
3.1033332999999996,-10.66255436,-3.23701559,502.1489627267856,-118.46513521878514,1005.316699626466,6.878816008537838,-6.853329055496284,-2.496148105656419,-7.132739514407994,-21.91631731590169,50.20117385272117,980.4431394076842,8.301799199572747,-225.21794191568884,2.8719400480255635,-4.465035885805743,-12.400043569903941,-99.91918247065102,-5.553124039487725,18.60144541088581
3.1199999999999997,-10.87913549,-4.16946523,554.2025775437411,-73.8552288092396,1041.8547202310183,8.020718532359476,-6.158995753354865,-0.09697061321560063,0.8259470018686939,-25.102457958213083,57.3576595889249,980.3932087650755,17.170859181247046,-210.1936684219467,4.181187361984058,-4.938995753354864,-12.394589434346893,-99.93053541702056,-5.606425004246644,18.446787497876677
3.1366666999999997,-11.06506873,-4.92662528,524.5524418039753,-120.99591535586805,1003.7027838967222,6.279590538474634,-5.519166604382549,1.6639750976728085,-6.492452777305805,-22.101489383387175,50.73571100730434,983.8471537285544,7.287480601325122,-207.5692364701886,3.077057414642451,-4.299166604382548,-11.202695311703774,-99.93336651944963,-5.640398233395617,18.429800883302192
3.1533333000000003,-10.94233229,-5.30299527,494.9024839646671,-168.13631905894465,965.5510764735848,4.5384729913368,-4.879341294377426,3.4249102429081475,-13.810808646169715,-19.1005388143366,44.11380215729557,987.3010779684051,-2.595838678444281,-204.94482026499057,1.9729340920672387,-3.659341294377425,-10.010808340411044,-99.93619760489214,-5.674371258705623,18.412814370647187
3.1700000000000004,-10.95342953,-5.33033795,465.25234822490137,-215.2770056055731,927.3991401392886,2.7973449974519573,-4.23951214540511,5.1858559537965565,-21.12920842534421,-16.09957023951069,37.49185357567501,990.755022931884,-12.479217258366205,-202.32038831323246,0.8688041447256318,-3.0195121454051095,-8.818914217767926,-99.93902870732121,-5.708344487854595,18.395827756072702
3.1866667000000004,-10.93591572,-4.98623343,538.0373964101093,-90.05226188971896,818.1116485640432,10.056882567490009,-6.9219709362435635,2.7441879954049186,-23.650622831705913,-15.015640178058586,35.18875433658817,948.0192217116597,-29.43589089603596,-239.92531157380847,10.55560384836304,-8.703350459506142,-9.498789029293507,-99.92875433658817,-5.846228317059162,18.149446553704767
3.2033333,-10.83527828,-4.54331096,545.1644979035038,-108.51380014359584,799.2959091614013,12.799548219414161,-8.08987742676624,1.7773145893164737,-23.655409333716253,-14.982134663986214,35.17918133256749,933.1810654796093,7.022894916714954,-254.41405315910413,11.981981447444014,-13.72439106835158,-9.412631993107409,-99.91918133256749,-5.894093337162551,17.991491987363585
3.22,-10.93867637,-4.3045148,551.8814458877465,-126.27495415393167,781.698160600167,15.442198874687419,-9.259742984162289,0.855803348152267,-23.660355307029732,-14.949289385940538,35.16964469297027,919.2708422478468,41.715347666018225,-268.52401326757445,13.17743921922749,-18.65405355654353,-9.332131842178384,-99.90976312864684,-5.940829049736038,17.837157543762157
3.2366667000000002,-11.14088521,-3.82000655,548.984223273826,-127.61792247846627,792.6502988330093,15.740314688107812,-10.475360864128943,0.9976254341483766,-23.669038291886636,-14.931923416226729,35.16096170811337,927.1115775736317,35.00340037163092,-273.75406447971665,8.960402907057457,-21.44129169560993,-9.384229751319811,-99.90397447207557,-5.9610893477354825,17.76769366490692
3.2533333,-11.57298435,-3.64894173,546.0870180432065,-128.96088274520702,803.6023713531536,16.038428712836897,-11.690971450402882,1.1394466692136698,-23.677721224645737,-14.91455755070853,35.15227877535427,934.9522658550986,28.29149334884694,-278.9840843116143,4.743391897054762,-24.228513111280897,-9.436327347874409,-99.89818585023617,-5.981349524173382,17.69823020283412
3.27,-12.16952728,-3.54735114,543.1897954292859,-130.3038510697416,814.554509585996,16.336544526257292,-12.906589330369536,1.2812687552097792,-23.68640420950264,-14.897191580994722,35.14359579049736,942.7930011808835,21.579546054459634,-284.21413552375657,0.5263555848847279,-27.015751250347293,-9.488425257015837,-99.8923971936649,-6.001609822172825,17.628766323978883
3.2866667,-12.8845995,-3.50987078,537.7015059186824,-105.70697709727206,859.1689925373138,18.30271230056615,-14.741778435409172,-0.1425458054554931,-23.698375965002572,-14.831368244981986,35.10649613998971,932.7557195059185,25.95307411219769,-291.8997609366959,1.9963705609881888,-34.04155146680396,-9.409488419969119,-99.86487210499227,-6.026751930005147,17.482736489963973
3.3033333,-13.19217572,-3.27055049,532.4373502567825,-105.7615805515239,866.3379843139444,19.765069889471913,-13.993891593167362,-2.137085575527508,-23.71237018532991,-14.799383024450151,35.1,946.0839349391536,16.97378469353586,-298.60668111532874,2.116945796583681,-39.15495288601091,-8.610678324215703,-99.87237018532991,-6.017629814670091,17.49298716087976
3.32,-13.27078728,-2.9578223,527.4365959584683,-111.32521044992741,865.6588121022664,21.0117695657028,-12.858836664061633,-4.062957463436412,-23.726325778720554,-14.776123702132411,35.1,964.0261761750586,5.278997432175995,-304.965779836999,1.549418332030816,-43.63935022887126,-7.731475940605117,-99.88632577872056,-6.0036742212794465,17.530202076588143
3.3366667,-13.32797388,-2.74549728,534.1301193239839,-109.27081373817146,871.1432985567432,20.894877272108385,-12.547461331608687,-6.71202251684933,-23.736269334195658,-14.757461331608686,35.1,971.146975440806,15.516065831574565,-312.86544885628695,-1.3647763802845496,-47.25250166791475,-7.869890717543738,-99.90044889032609,-5.989551109673906,17.510743107086935
3.3533332999999996,-13.08964757,-2.64853207,545.0027243004968,-104.49401572605363,878.8304259990467,20.29068607461367,-12.530441861256723,-9.619515368643134,-23.74477906937164,-14.740441861256723,35.1,974.4005308564231,33.590743345360046,-321.315615886037,-5.117569592892552,-50.55427891619571,-8.371965092926668,-99.91463178228607,-5.975368217713936,17.47103100959902
3.3699999999999997,-13.13939366,-2.65725904,555.8753945129006,-99.71718905303301,886.5175995642996,19.686491251957264,-12.51342228878753,-12.527025665463878,-23.753288855606236,-14.723422288787528,35.1,977.6541057934509,51.66552930764471,-329.7658336169921,-8.87038532234996,-53.85607597521947,-8.874042480767908,-99.92881475934372,-5.961185240656274,17.431318673837566
3.3866666999999997,-13.23550181,-2.63799945,590.9385609125442,-99.67629330798431,877.9936110266178,20.61372228136864,-14.672554904942686,-16.044238707224178,-23.768036577946766,-14.699284562737645,35.10267885931559,973.6809044106473,35.311353460079985,-342.31545391634904,-13.77485186311762,-57.8985474524713,-9.058370114068468,-99.96143087452471,-5.931247984790877,17.434825171102656
3.4033333000000003,-13.14463697,-2.75949016,671.6884946148211,-113.4866518620507,828.0550985987428,24.7548263418534,-23.536332881792635,-19.02733481379493,-23.797816060047523,-14.665310363971486,35.11312642401901,957.4888896982079,-42.271610979103095,-367.7886513290847,-19.54645790677535,-64.76571215384966,-8.736366769558757,-100.02937927205703,-5.869057515933467,17.517494303923964
3.4200000000000004,-12.98398714,-3.11864207,691.478604738958,-122.07334636139565,804.2011132331056,25.47655281916903,-30.464907064022697,-18.168665363860434,-23.81632186715818,-14.654206879705091,35.12052874686327,961.463937065577,-27.903702338388833,-390.01782683040614,-20.62719704203773,-71.71649330461251,-9.343357242788313,-100.05158624058981,-5.843149385978547,17.48788501254691
3.4366667000000004,-12.70906289,-3.04965364,711.2687148630948,-130.6600408607406,780.3471278674684,26.19827929648466,-37.393481246252755,-17.309995913925942,-23.834827674268837,-14.643103395438699,35.127931069707536,965.4389844329462,-13.53579369767457,-412.2470023317276,-21.707936177300112,-78.66727445537536,-9.95034771601787,-100.0737932091226,-5.817241256023627,17.45827572116986
3.4533333,-11.64907545,-2.81531283,733.818910060473,-100.05202858713537,781.6098350522266,26.67462632215503,-47.92791639362298,-17.907082155030245,-23.855843826278175,-14.632078086860913,35.13528127542606,951.0785036393621,8.013834414513695,-432.7062404617924,-14.346869356789348,-85.42388255085218,-10.426313974711382,-100.09320318856514,-5.7888748982957665,17.48168765255635
3.47,-10.22825466,-3.0534738,757.4399945024741,-54.23921935129155,792.6159043430457,27.055788894997253,-59.86123694337557,-19.068894997251245,-23.87783397471138,-14.62108301264431,35.1426113249038,929.6051236943374,32.34959868059393,-452.47904892798255,-3.7109675645958475,-92.10522264980764,-10.851456844420014,-100.11152831225948,-5.759554700384827,17.52566794942276
3.4866667000000002,-9.11682829,-2.84711409,781.0610789444752,-8.426410115447752,803.6219736338649,27.436951467839474,-71.79455749312817,-20.230707839472245,-23.899824123144583,-14.610087938427707,35.14994137438153,908.1317437493127,56.68536294667416,-472.25185739417276,6.924934227597653,-98.7865627487631,-11.276599714128643,-100.12985343595382,-5.730234502473887,17.56964824628917
3.5033333,-8.48900179,-3.03674475,685.6621972601969,4.430172074422732,957.6865649497986,30.75194463667818,-79.67129040217823,-29.717252453343914,-23.973704464235066,-14.598147767882466,35.16185223211753,923.427298060015,74.82360712462412,-546.8499412615574,-1.7386709966532987,-110.88631607011175,-8.82246539792386,-100.16463058029383,-5.652591071529866,17.5955566963526
3.52,-7.49294969,-3.03136617,625.1888031085145,13.31233478926766,959.761748255715,33.05875432525951,-79.52475126212491,-30.468856429746438,-23.99261274037098,-14.588693629814511,35.17130637018549,897.688407170004,81.63058653355264,-559.2017726473424,3.6785501162856526,-111.37793124964547,-10.264221453287194,-100.18826592546372,-5.614774519258041,17.623919110556468
3.5366667,-7.24430336,-3.16324195,569.7804958316872,19.863585124456634,960.6354732911891,35.28991515211379,-79.30762984986171,-30.92745661793756,-24.011059423152904,-14.579205432635321,35.180529711576455,873.9619965823784,88.10347376531017,-572.7908803042277,8.785806499407357,-111.6732053733702,-11.712628229948645,-100.21238370209403,-5.577881153694192,17.65370798103516
3.5533333,-6.37226581,-2.98462476,572.2729130975899,-0.2305001777951894,947.7749952983012,36.656299782694575,-78.28366450019756,-28.03664768866063,-24.02422939549585,-14.569327953378112,35.18711469774793,873.2409405966022,90.75722319241405,-600.523549565389,10.349740715132347,-109.724049466614,-13.237052528644792,-100.24201613986565,-5.551541209008297,17.699802884235478
3.57,-5.36664667,-2.84533665,574.7653453180561,-20.324706045041427,934.9144401422363,38.02269261161596,-77.25969300671672,-25.145821414460695,-24.03739944685895,-14.559450414855789,35.193699723429475,872.5198802844726,93.41098854207823,-628.2563852232317,11.913684314500193,-107.77488186487554,-14.761485973923346,-100.27164875543264,-5.525201106282102,17.74589806400632
3.5866667,-3.6489374,-2.8086145,580.6346652244977,-35.70155485049508,920.9688328526103,39.355291366214786,-76.2418897221421,-22.715716902220944,-24.051385828285742,-14.54861417171426,35.20103937121431,867.3555069224112,96.22058297279108,-654.0454637534851,13.01919642342082,-105.67787376213825,-16.367937169502934,-100.3020787424286,-5.496535429285646,17.794157484857223
3.6033332999999996,-1.76504184,-2.85916745,661.2195430247073,53.29594192865855,883.0159032304596,39.940168685703284,-75.36056773387178,-30.479362417075095,-24.08343390058648,-14.516566099413518,35.22507542543986,763.8802934813984,102.47796908951048,-636.8276369099128,3.9816400346122744,-100.30982165176438,-19.789068887606877,-100.35015085087971,-5.416415248533797,17.890301701759444
3.6199999999999997,0.29505547,-2.9888301,667.6371380532585,53.203064921688494,856.7163464509684,37.22163349389568,-72.0485631191494,-36.65073010391094,-24.094014662667757,-14.49795601199673,35.24204398800327,741.7967742130934,108.85862158805162,-655.5492605047102,-1.3948738222908004,-96.68879184464849,-17.282284528462014,-100.40014662667757,-5.351824047986915,17.95416128934533
3.6366666999999997,1.92270734,-3.48660655,654.9436048350452,30.15374943197341,833.4196231936747,33.65189284740531,-68.11023539034814,-42.41179669181125,-24.099063800781607,-14.482808597655186,35.257191402344816,740.685963828047,115.27102699263828,-683.5315839316546,-5.828017086249146,-93.5179331091521,-13.248023175497647,-100.45063800781604,-5.291234390620741,18.009701808597654
3.6533333000000003,4.16359017,-3.23014179,656.7596486211237,19.259530602871358,810.6998665854578,30.940419793517915,-67.06551414821173,-44.106260618647305,-24.089155660283165,-14.466444575353954,35.26271108492921,737.8312700241627,111.82675585598163,-692.6239622980611,-10.418408051600661,-91.73983371607721,-10.732372626155662,-100.48439976436288,-5.2420448109910724,18.10404363280548
3.6700000000000004,5.24325858,-3.94739876,661.8784425983987,11.132030672763696,788.1112744373658,28.424289594025126,-66.67944126045887,-44.875078179603435,-24.07584280208479,-14.449803502605986,35.266039299478805,734.5796044092098,106.13883719072611,-697.4165912494759,-15.044626275535817,-90.2787475288056,-8.56237673982061,-100.51435369530923,-5.195449807296762,18.207218283842884
3.6866667000000004,6.67054121,-4.12837611,666.9972365756737,3.0045307426560335,765.5226822892738,25.908159394532333,-66.29336837270601,-45.643895740559564,-24.062529943886414,-14.433162429858017,35.269367514028396,731.3279387942567,100.45091852547058,-702.2092202008907,-19.670844499470974,-88.81766134153399,-6.392380853485558,-100.54430762625556,-5.14885480360245,18.310392934880287
3.7033333,8.68764435,-4.14914764,710.1028766105813,23.443853216108735,749.5730328432113,22.265089080895297,-69.37808999039973,-45.708148855540394,-24.019074427770196,-14.389074427770197,35.263179071295035,723.050097064322,75.05338916679254,-722.1094655146283,-19.465472335910242,-86.87569339598804,-4.186095750593672,-100.6113883583447,-5.037686069425495,18.39820928704967
3.72,10.28960883,-4.80424698,746.3743023749544,30.606310470744692,735.464553457695,20.182072635661097,-72.13927590794579,-44.50700852039514,-23.979442069804964,-14.343568375463525,35.25706315282928,716.9719325162057,58.98873920797114,-751.7528779686929,-18.745610156537488,-85.65066238287993,-2.295671865711757,-100.66643162453647,-4.94594729243921,18.43
3.7366667000000002,12.12267156,-5.26619607,773.0961267019563,25.652582444022926,721.5280652758512,19.20548053896452,-74.21040600673707,-42.63874537888865,-23.946417216293487,-14.301107849520196,35.25234531661336,712.9429003878054,51.38830506411517,-785.1551583774454,-18.401208112774928,-84.92883344184334,-0.6019686641945055,-100.70889215047981,-4.875179749200328,18.43
3.7533333,13.81548767,-5.58628796,813.6189095679475,34.895232843717004,708.7023218563841,18.202691434224395,-77.65891322394027,-41.5009136110454,-23.915580249037614,-14.265580249037614,35.25,706.1436303361363,50.20555517322951,-804.3122959203423,-16.52666691756813,-85.615431944773,0.3733826964020724,-100.7444197509624,-4.807555560334631,18.4281975311297
3.77,14.98681202,-5.73393832,867.7850573130606,58.17176562936844,696.9744476225295,17.173993419213314,-82.4690621303684,-41.08513322867158,-23.886905739908386,-14.236905739908384,35.25,696.6057717370267,55.36696681649069,-809.3876840362158,-13.139490526677985,-87.69433385664209,0.6386219058474383,-100.77309426009163,-4.743037914793867,18.42461321748855
3.7866667,15.56095378,-6.23096047,921.9512050581737,81.44829841501986,685.246573388675,16.145295404202233,-87.27921103679653,-40.66935284629776,-23.858231230779158,-14.208231230779155,35.25,687.0679131379169,60.52837845975186,-814.4630721520892,-9.75231413578784,-89.77323576851117,0.9038611152928041,-100.80176876922084,-4.678520269253102,18.421028903847397
3.8033333,16.57816697,-6.2020443,942.6443200121101,120.6301795770074,692.420459884953,13.753214220838231,-90.85443021495607,-45.031365684875155,-23.80888655334977,-14.164025734181049,35.229443276674886,671.908599930799,82.46393970848979,-835.6184801262918,-10.347450153540047,-94.75372124908085,2.5114758877210956,-100.84597426581895,-4.57263392586826,18.37888655334977
3.82,17.24339971,-6.26922689,939.1821076256869,155.18387515842824,700.6228041825095,11.957755597803118,-92.55807192648925,-49.951509822560176,-23.765700253485424,-14.124267004647233,35.20785012674271,652.671274820448,103.71693757921412,-855.1421974017744,-13.136406316011776,-98.80397232784115,3.999414343050273,-100.88501637093367,-4.474950887198987,18.328534009294465
3.8366667,17.18960452,-6.26963332,913.6112741999368,166.89439710076036,695.1966209600761,12.534260060202783,-91.41606499524715,-52.04408899714827,-23.75249786121673,-14.106663814955642,35.201248930608365,629.6771082858049,109.57219855038018,-857.8816937975286,-17.14773316698349,-98.50911890050698,4.120436272179973,-100.90041916191382,-4.4287425142585555,18.293327629911282
3.8533332999999996,16.65256351,-6.82854917,888.040594198881,178.60484878010115,689.7704702946769,13.110761063582583,-90.27406491603298,-54.1366556162864,-23.739295548162232,-14.089060730882975,35.19464777408112,606.6830797158856,115.42742439005058,-860.6211737563372,-21.15903595004216,-98.21426724228982,4.2414574751795495,-100.9158218604774,-4.382534418567809,18.25812146176595
3.8699999999999997,15.69945504,-7.12330605,862.4697607731309,190.31537072243327,684.3442870722434,13.687265525982248,-89.13205798479089,-56.22923479087449,-23.726093155893537,-14.071457541191382,35.18804657794677,583.6889131812425,121.28268536121662,-863.3606701520912,-25.170362801013873,-97.91941381495565,4.36247940430925,-100.93122465145754,-4.336326045627377,18.222915082382762
3.8866666999999997,14.48555387,-7.86511144,836.8989273473809,202.0258926647654,678.91810384981,14.263769988381911,-87.99005105354881,-58.32181396546259,-23.71289076362484,-14.05385435149979,35.18144538181242,560.6947466465994,127.13794633238268,-866.1001665478453,-29.181689651985586,-97.62456038762147,4.483501333438951,-100.94662744243769,-4.2901176726869465,18.18770870299958
3.9033333000000003,13.76888612,-7.95748389,837.713927657625,116.5908051238433,570.5603998625785,19.431404246965247,-91.10245479828552,-44.07919229133264,-23.612192160455454,-13.920274514936361,35.11616470896182,501.1757331086604,114.31893498674935,-854.3734829041651,-24.39945227889918,-92.87080770866736,-0.7039646304355023,-100.98794509701273,-3.922741190328173,18.078356869417266
3.9200000000000004,14.04116018,-7.73245065,814.6849468311353,187.15011909825722,530.3537515950653,15.974057847724318,-92.20400680561464,-42.65044661846021,-23.574019566142066,-13.86574223734581,35.08344534240749,461.8961335601865,180.08486176095383,-848.5167162909399,-10.602786048489783,-94.2995533815398,-1.5055891110166018,-100.99885155253084,-3.7755040408336855,18.00746490854955
3.9366667000000004,15.07657282,-7.7440561,778.3978724123072,186.101923600829,534.8911159716803,13.089056828276798,-87.50893249791359,-42.9536092012814,-23.565985759280696,-13.835914555684173,35.07397863892104,436.64107957573924,192.2525983794116,-847.8518291113684,-11.572594274100243,-92.03944844805767,0.637903599213977,-101.01003560179826,-3.691757907771824,18.0
3.9533333,16.52160239,-7.36821796,740.5506426763937,176.62609535090317,544.6944704821385,10.271433655476885,-82.13166916574689,-43.46060190594126,-23.56149909817751,-13.808994589065065,35.06724864726626,413.0367555118852,198.11217778017067,-847.7979891781301,-14.280294249872133,-89.34520845559534,3.1280005114814156,-101.02125225455622,-3.615484669017686,18.0
3.97,16.60568254,-7.91557328,702.7031858561928,167.15021024578027,554.4978838129593,7.453793576870266,-76.75437356987103,-43.96759765256952,-23.557012410154254,-13.782074460925513,35.06051861523137,389.4322898215199,203.97179233854686,-847.744148921851,-16.988010471908908,-86.65095229762834,5.618112364390132,-101.03246897461437,-3.5392109726222842,18.0
3.9866667000000002,15.61455673,-8.52236567,664.855729035992,157.67432514065734,564.3012971437802,4.636153498263647,-71.37707797399518,-44.47459339919778,-23.552525722130994,-13.755154332785958,35.053788583196486,365.82782413115456,209.83140689692306,-847.6903086655719,-19.695726693945684,-83.95669613966133,8.108224217298849,-101.04368569467252,-3.462937276226882,18.0
4.0033332999999995,14.22875651,-8.9781843,702.0256344478485,139.204217313452,472.2220017217044,6.45575761853927,-60.112494232292285,-19.96062150063722,-23.57544165145828,-13.528086946041805,34.99338214937502,369.05381446919927,65.86016029062358,-861.9945330739295,-22.832089390861636,-61.48304772562935,4.342136737715759,-101.1064714024999,-2.9241143900003497,18.16823800833304
4.02,14.54379566,-8.8529483,755.6855101408346,209.82290933507704,442.5168127819294,8.343896560035786,-59.624677180537866,-10.336278020729443,-23.61561482042629,-13.419045487414348,34.97616507696016,343.4118546193317,66.9792699975896,-884.6923735408558,-0.5417196377538183,-58.05685031507184,-1.5059288591989848,-101.17533969215935,-2.64864123136256,18.397798973864532
4.0366667,14.60723727,-9.0261327,791.9397847139937,229.1429444404792,424.1993441492628,9.710327390044382,-58.21138160768586,-6.703672695607489,-23.665127278696946,-13.346399994289875,34.98069091090777,329.1961082354286,79.90822031091608,-897.9653826926096,7.812654608785021,-56.51385449172746,-3.36632723301595,-101.22901818674966,-2.475163623645631,18.553309103367546
4.0533333,15.0508127,-8.75905243,818.4846243593959,219.84737318525055,412.23429991006526,10.785730053817955,-56.281842757419554,-6.41340914476595,-23.719849095658876,-13.294057386761073,34.997345376939656,321.35423394384077,99.42487529085994,-905.9809392728157,8.3931817104681,-56.021358139070095,-3.002308189747462,-101.27422316597908,-2.3585823614223895,18.66751115615766
4.07,14.9805716,-8.67046416,845.029623274472,210.55174615637162,400.2691838803155,11.861139170033281,-54.35229232987392,-6.123143852336149,-23.77457124095302,-13.241714465175372,35.01399994289874,313.51231260081926,118.94164737120136,-913.9965439465534,8.9737122953277,-55.52885883142281,-2.638286962355991,-101.31942841643945,-2.242000399708781,18.781713894162827
4.0866667,15.00957432,-8.26015999,871.5746221895481,201.25611912749267,388.3040678505658,12.936548286248607,-52.422741902328276,-5.832878559906349,-23.829293386247162,-13.18937154358967,35.03065450885783,305.67039125779775,138.4584194515428,-922.0121486202911,9.554242880187303,-55.03635952377552,-2.2742657349645197,-101.36463366689983,-2.125418437995173,18.895916632167996
4.103333299999999,15.98096563,-7.61038134,877.8778125098478,267.7887448738433,320.47466742443,12.103052870872634,-54.00763249229112,0.6446674244300042,-24.17646769002228,-12.922534268158188,35.19898237637579,288.1810700443409,118.68995073037875,-953.3732808976123,4.0775339530486425,-51.80939359427404,-2.348708231110285,-101.59247552274415,-1.483551891782399,19.586467690022282
4.119999999999999,16.7738205,-6.9835349,869.1772716769083,273.2231441926066,320.26084269283575,12.035529271421824,-53.19985017293514,0.43084269283577364,-24.217732111908887,-12.878768972217848,35.22149024285939,281.0673337984954,119.39144590245105,-947.2673968954215,4.672741977837261,-51.30671790947357,-2.721338465116605,-101.62373644841583,-1.4172787293584561,19.627732111908887
4.136666699999999,16.94432203,-6.39960456,860.4767308439688,278.6575435113699,320.0470179612416,11.968005671971014,-52.392067853579164,0.21701796124154304,-24.258996533795493,-12.835003676277509,35.243998109342996,273.9535975526499,120.09294107452335,-941.1615128932307,5.26795000262588,-50.8040422246731,-3.093968699122925,-101.65499737408749,-1.3510055669345133,19.668996533795493
4.1533333,17.42252783,-5.52270203,851.7762422141695,284.0919102238027,319.83319451259314,11.900482477660988,-51.58429038090737,0.003194512593128307,-24.30026070809606,-12.791238642928418,35.266505840779665,266.8399039891363,120.79443203763307,-935.0556655262704,5.863154456173514,-50.30136955592069,-3.466596697352326,-101.68625811219398,-1.2847328021487474,19.71026070809606
4.17,18.2608432,-5.01614658,843.07570138123,289.526309542566,319.6193697809989,11.832958878210178,-50.77650806155139,-0.21063021900110224,-24.341525129982667,-12.747473346988079,35.28901370726327,259.72616774329083,121.49592720970537,-928.9497815240796,6.4583624809621325,-49.798693871120214,-3.8392269313586462,-101.71751903786566,-1.2184596397248044,19.751525129982667
4.1866667,18.7667895,-4.76964786,834.3751605482905,294.96070886132935,319.4055450494047,11.76543527875937,-49.9687257421954,-0.4244549505953328,-24.382789551869273,-12.70370805104774,35.31152157374687,252.61243149744533,122.19742238177767,-922.8438975218888,7.053570505750751,-49.29601818631974,-4.211857165364966,-101.74877996353733,-1.1521864773008617,19.792789551869273
4.203333300000001,16.23942383,-4.98497628,825.6746719184912,300.39507557376214,319.1917216007563,11.697912084449342,-49.160948269523615,-0.6382783992437475,-24.424053726169845,-12.659943017698648,35.33402930518355,245.4987379339317,122.89891334488738,-916.7380501549285,7.648774959298385,-48.79334551756733,-4.584485163594367,-101.78004070164383,-1.0859137125150957,19.834053726169845
4.220000000000001,13.21062137,-4.88661502,816.9741310855517,305.82947489252547,318.97789686916207,11.630388484998534,-48.353165950167636,-0.8521031308379783,-24.46531814805645,-12.616177721758309,35.356537171667156,238.38500168808622,123.60040851695967,-910.6321661527378,8.243982984087005,-48.29066983276686,-4.9571153976006865,-101.81130162731549,-1.019640550091153,19.87531814805645
4.236666700000001,11.48366776,-4.85964653,230.72738620686962,79.60795785439049,376.03046187739994,19.6470837164754,26.127732567053172,32.62803180076941,-25.30604540229887,-11.872636398467417,35.522071455938686,144.264382758618,67.6118145593772,-609.7903170497975,1.1208022988518405,13.820537931037775,-18.178706321839723,-102.3369869731801,0.2630323754789674,19.594519540229857
4.2533332999999995,9.65322553,-4.80325106,187.39409054020265,36.075157264907986,427.56361273996106,19.103481548154832,39.93119585073224,40.027517448465964,-25.349115964055418,-11.862665756739608,35.458881306163406,179.85025037257722,58.818007776187656,-578.0082902273842,8.539782133950894,23.67759671540898,-19.17010919124697,-102.37178172079503,0.33600818934352267,19.555773531451507
4.27,8.97757565,-4.54156823,148.4884828318905,-4.992146345781293,478.47782237240017,18.503420342034214,53.230913074913786,46.92576205161486,-25.388464239866607,-11.85528795502501,35.39739962520843,216.11460506706334,51.67383644921884,-547.9289926369693,15.782324150447685,33.02035295332793,-20.0554453969987,-102.40375219489162,0.4024084047749024,19.521343790116717
4.2866667,9.81730721,-4.3894537,109.58287512357839,-46.05944995647056,529.3920320048393,17.9033591359136,66.53063029909532,53.82400665476375,-25.427812515677797,-11.847910153310412,35.335917944253445,252.37895976154948,44.52966512225001,-517.8496950465542,23.024866166944477,42.363109191246885,-20.940781602750427,-102.4357226689882,0.46880862020628217,19.486914048781927
4.3033333,9.85971955,-4.18984232,70.67750084844423,-87.12650716383249,580.3059361526334,17.303301530152996,79.83026772513361,60.72220986852806,-25.467160555399804,-11.840532395862537,35.27443663218781,288.6430968703439,37.38553666022317,-487.7705779315627,30.26736472827634,51.705809372740866,-21.826112496495583,-102.46769295126234,0.5352084372371686,19.452484514025173
4.32,10.06521409,-3.99349964,-275.38073756943567,-166.8272055277084,780.9560528383715,-14.173672944045691,172.8590150386135,79.6965302804501,-25.86165885381385,-11.263576751117728,34.95801598699363,372.9454802872243,152.51074163392468,-373.48228857878235,38.38413385720058,145.8381525538553,-15.056224901774796,-103.17905758027368,0.8523091721988917,18.782276114347646
4.3366667,9.01372001,-3.10554156,-303.385129034007,-259.66034065844974,899.7026209998676,-21.557511041864437,209.73304443842392,93.13195434223039,-26.024238775233712,-11.015190760059605,34.818016610215416,389.9260498577433,140.93143834168782,-329.71216084541277,23.65258653298973,182.35540934832773,-13.651715025064318,-103.52228185882673,0.9697280043354589,18.624212301856115
4.353333299999999,6.22585309,-2.73500561,-319.3485511215476,-320.81145125726016,982.3383287942756,-26.42102346787827,234.59783575534763,104.1653426249252,-26.16515916680644,-10.834822107686918,34.72157616005124,414.3798200795973,116.98433112734402,-329.29394348800577,20.79911024870751,209.20510768691094,-12.986323365711598,-103.81866727153508,1.0617634151176407,18.54996254898672
4.369999999999999,1.68252471,-2.16561209,-329.02646533188926,-365.4243992741556,1046.1241194589697,-29.96891428658546,253.1937649247463,113.94491559798054,-26.294774089266372,-10.689958370819934,34.64787355708383,442.73499046950855,86.58073666875225,-351.50638314094334,24.146225011055193,231.00837081992597,-12.706761768248997,-104.09060446179416,1.1405489562207374,18.519464920172616
4.386666699999999,-4.6117478,-1.99303691,-338.7043795422309,-410.037347291051,1109.909910123664,-33.51680510529265,271.7896940941449,123.72448857103589,-26.424389011726305,-10.54509463395295,34.57417095411641,471.0901608594198,56.1771422101605,-373.7188227938809,27.493339773402877,252.811633952941,-12.427200170786396,-104.36254165205322,1.2193344973238338,18.488967291358517
4.4033333,-10.30976809,-1.36038152,-348.38223568520385,-454.65002763079525,1173.695318074382,-37.064674636697625,290.38551168819237,133.50400286677112,-26.554003156498265,-10.400231766266643,34.50046879336373,499.44516111865005,25.773730172769532,-395.9311291724479,30.840434453102276,274.61476626663966,-12.147640250690015,-104.63447721069244,1.2981195657146323,18.45846984552982
4.42,-14.68201518,-1.00704338,273.8872037241641,-1149.3537967492537,2365.5183767292665,-77.03969964757266,396.23273105044484,189.78683341223524,-27.160947872284467,-9.555411077797062,34.19805481037294,756.6080826889727,-72.12269843774617,-772.5864736205378,88.37006259533987,400.9440192520125,5.788629740676463,-106.4352627426227,1.6273068223659994,18.268304139708587
4.4366667,-18.22842503,-0.5528336,687.8325900268343,-1446.2219934511654,2801.0784854820977,-96.95364896638824,427.7978530061549,211.03334724633146,-27.362585923938774,-9.22665338488243,34.154220451317656,1050.6884141549685,-34.775824522644086,-993.2574039766491,119.8299820893173,446.19422810478227,6.884488717058566,-107.18483028246806,1.7018252327599825,18.18501885750355
4.453333300000001,-20.81517483,0.05333776,1204.6767696740308,-1310.041948729665,2678.3500697961726,-125.46433630578127,447.0938151293264,227.9913168401086,-27.55499321006259,-8.907789848777616,34.13101638094563,1400.0971196128476,10.50150148031723,-1120.4244002517291,134.89063951282375,483.92675522541595,10.13897895651316,-107.89895645930473,1.7969372772882901,18.15758529969686
4.470000000000001,-23.36392395,0.71809027,2087.810653110484,367.607797968441,568.3506364457012,-184.5765032708743,422.7173591930065,229.68437250695845,-27.714548194373048,-8.624136543336803,34.18124665378411,1946.4606614427623,84.00907369653156,-914.7609801974805,91.57737071639778,494.90059247965746,21.077359547574552,-108.48694612370808,1.9653564273937736,18.328959171734017
4.486666700000001,-24.01315803,0.81014262,2970.9445365469373,2045.2575446665464,-1541.6487969047707,-243.6886702359673,398.3409032566865,231.3774281738083,-27.874103178683505,-8.340483237895988,34.231476926622584,2492.8242032726776,157.51664591274587,-709.0975601432319,48.26410191997179,505.8744297338989,32.01574013863595,-109.07493578811145,2.1337755774992573,18.500333043771175
4.5033332999999995,-23.57328733,1.30980148,3854.073121190626,3722.897225486186,-3651.635570283814,-302.8004825287637,373.96459357881133,233.07047368234439,-28.03365720566596,-8.056831634371623,34.281706898080024,3039.184466927859,231.02377708440386,-503.43537406705,4.951093002641869,516.8482011452478,42.95405509954429,-109.66292192458383,2.302193717091849,18.671705887567143
4.52,-22.82712592,2.06514542,-43.449364448244076,-1671.2012725607392,1760.638995565929,21.726210629307054,29.33629556383616,-84.40534379749,-29.00939838041508,-6.947955950621405,34.4504263380311,-245.24370401983242,158.94418365011555,-1505.6461023794213,-158.4749409829926,-15.35198014030857,66.84464017320013,-112.08998813414657,2.687460915544263,18.941918521139954
4.5366667,-20.45358668,2.78575938,234.8921932676845,-1458.6771678497862,1272.6495940004668,0.4439619876349141,31.494358598580224,-59.18862010533593,-29.640857339134403,-6.555896267460506,34.464304556904054,394.2854389741125,-397.235846347597,-1268.2140643462374,-144.63835676665929,-12.812266086558324,53.32378543622649,-113.71720929700021,2.9303297458209254,19.004370506068238
4.5533333,-18.2827174,3.43194348,513.232080937617,-1246.1543382809036,784.6631203655403,-20.83815896080154,33.65240868497205,-33.97204771322048,-30.272312509107575,-6.163838936652988,34.47818269250786,1033.8107448008973,-953.412539271824,-1030.783450902424,-130.80185556966472,-10.272567271061831,39.80301182421852,-115.34442069654645,3.1731971188875296,19.066822116285365
4.57,-16.17239335,4.08145832,727.4579842170804,-1005.2081711200228,402.29590820989085,-36.11881558908991,34.24673196732638,-12.521130416724356,-30.958484009414395,-5.758042364668408,34.498566385158526,1520.271062577866,-1352.9224698878454,-805.3397002630445,-109.86881628132195,-5.602904610272303,27.09584590890191,-116.94929946005819,3.393135123909735,19.106293783746363
4.5866667,-15.00416571,4.70105216,574.0434296921838,-601.2893236882101,625.5684639115833,-16.98622236835994,25.874539918777806,-12.663423069823253,-31.95837832848772,-5.273478194655951,34.55625259587429,1129.0316442613791,-854.0828855969255,-648.6370317273493,-48.2445602473567,11.279926392542688,19.054388135123745,-118.42606645438187,3.4815873136739137,19.013995846601134
4.603333299999999,-13.78243486,5.34553811,420.62979565278425,-197.3728997646631,848.8396799806052,2.1462560570389613,17.502398103281646,-12.805714869167927,-32.95826664820706,-4.788916932022732,34.613938460473484,737.7945733767347,-355.24629433756036,-491.93530340579565,13.379326041807516,28.162656098573073,11.012978609996285,-119.90282458812119,3.5700389727260093,18.921698463242425
4.619999999999999,-12.5096912,5.97013906,342.4241932012417,-141.41521048298964,929.0900056972864,0.4250547572334895,2.504805342787799,-0.4517313413952575,-35.02952269418227,-3.690830537443912,34.790384250174064,658.4716420839296,58.2102089004041,-201.41704247644296,15.648893460786415,27.2585858074327,14.505899854401976,-122.8315477622331,3.7256801924415903,18.654423624738897
4.636666699999999,-10.91427352,6.21901965,343.7441645371257,-259.8508957328812,875.998112524111,-5.8634817984571885,-5.947427796528426,7.312373161764808,-37.0211747528929,-2.549423758437841,34.9,765.784793032784,77.00212237826396,1.7352774228509702,-21.339436324733356,22.508558009884165,19.33210661764709,-125.6078043032786,3.8522172733847606,18.275898113548713
4.6533333,-9.77271688,6.69755457,356.74234462391524,-303.506298095468,812.6043609570872,-3.7540398987463677,-6.409496022179367,5.167773897058806,-38.37222206485054,-1.7156919599807068,34.9,826.2353709016398,-120.04486345829474,73.34580743731973,-51.90123146697228,24.954506117405998,18.71936397058823,-127.48621209016395,3.9225320033751214,17.919301982883315
4.67,-8.36008388,6.7731896,363.81285593868233,-322.6981890890558,794.3043388940076,-1.896741026797067,-5.7996265657773325,3.7964481602728593,-39.43355183972714,-1.083406778664255,34.856200968380605,918.3835392939071,-236.2937953070795,91.25816791798145,-38.29919197067355,18.286977633152155,15.467821143629985,-128.92277537098389,4.053524983827654,17.68642934154039
4.6866667,-7.54790471,7.08435193,367.0832706761022,-326.2071056005332,804.9127671181857,-0.20109142767527777,-4.5025689726148075,2.9208526061984093,-40.30914739380159,-0.5802660498304292,34.78432372140435,1030.8518279262162,-300.7448158116567,74.74600399898044,3.615044459256012,5.777069511692943,10.524626840217138,-130.0760784701939,4.223416658498816,17.53287340481838
4.703333299999999,-7.1887897,7.40663041,370.3536657910727,-329.7160010585535,815.521131691921,1.4945479975691458,-3.205519161782368,2.0452623056868378,-41.184737694313164,-0.07712833983497402,34.71244690569071,1143.3194417501354,-365.1954496108797,58.23393915276596,45.52902940426702,-6.732763550466782,5.58146219591114,-131.22937464959907,4.393307313821957,17.379318389430154
4.719999999999999,-6.96277946,7.44480497,376.83705142260436,-279.09110728270076,861.7983612633722,3.8876496998170635,-2.3288368572174756,-0.7652221352124178,-42.76851840250571,1.0139430957973272,34.68477316627512,1061.94489167321,-138.38146332553652,-94.41971808925243,72.54051683633409,-5.654608718351195,-0.9840349778120054,-133.3442375358912,4.656153484729811,17.147712346645804
4.736666699999999,-6.84438521,7.55390544,381.2423857810878,-218.4508889851063,900.1477118981655,4.0775896836396095,-1.9984747142362334,-3.5867210483777514,-44.50027733518061,2.3172838586767583,34.75530995266134,923.6173247892841,99.21988884078871,-248.63700640803694,61.92226705923479,0.7956606627411992,-3.597822133703217,-135.6854730977946,4.988699024362059,17.018022024015693
4.7533332999999995,-6.65097488,7.83798847,378.5435165396606,-209.7625505715277,882.4102236750956,0.089421054150856,-1.9696098025632147,-4.029316360697372,-45.57790070430664,3.2120961205403384,34.91887778547512,939.5892425816878,-7.5466086190953945,-236.65806806373416,13.140566331833142,-1.4942889966516195,1.7421865258052476,-137.17682686756723,5.311023871377434,17.138292489319937
4.77,-6.80070601,7.76950759,376.73436937108113,-204.9505293558807,873.7564810944328,-2.087935398061947,-1.981477104313129,-4.106614098422955,-46.541509025270756,3.993631768953067,35.07670796123884,955.5961527645829,-83.12921755652667,-221.90066958008748,-19.69030590917728,-2.6042435873076233,5.37,-138.48750940528217,5.594984989549686,17.258584837545126
4.7866667,-6.73214061,7.87013784,376.81037180315406,-208.3516381911457,884.3493200646018,-0.4285489644689551,-2.079646912407371,-3.4099251377541413,-47.26353212996389,4.535149097472917,35.22237928937868,971.6770006840204,-92.63902186965598,-201.25650896826932,-18.72444166825006,-1.2140324339730366,5.37,-139.41537243017288,5.79765814174425,17.37892202166065
4.8033333,-5.81143792,8.41420869,376.8863737792134,-211.75272661979864,894.9420954778644,1.230827512825408,-2.177816131483946,-2.713240357210706,-47.98555090252709,5.076663176895314,35.36804974349231,987.7577521185638,-102.14876912407385,-180.61247222116634,-17.75858322249666,0.17617037811136305,5.37,-140.34322988789665,6.00033007790234,17.499258483754517
4.82,-6.26696349,8.61372611,379.58207070981797,-215.96991677998378,902.4046543377752,2.62885722056024,-1.9440924666847752,-2.3381446831656385,-48.93986021212948,5.763240141419652,35.56085776448192,997.8690182213759,-102.5045999456073,-166.57321892847455,-16.275375033995058,1.1776176230622677,4.9463296165351895,-141.54662279031822,6.239381561055213,17.65314332336144
4.8366667,-6.18182191,8.79217771,394.24912780442924,-223.87284924305536,894.4364475022264,2.610208612220226,-0.12,-3.513685214443692,-51.03637008416885,7.152332481112322,35.98058312027808,977.8635605124812,-59.3233816322432,-184.2874528166377,-12.257865071385396,0.17020861222022615,2.506864726666863,-144.09580908333578,6.648866938611365,17.96800884777801
4.853333299999999,-5.50514009,9.2880536,385.3630832782744,-223.75315575536467,896.8877701301311,1.4420001723593547,-0.12,-3.073213179742052,-52.314696532705135,7.860917928241047,36.15772948206026,966.8756983424784,-71.59914572979761,-167.33885495963983,-10.213500301628871,-0.9979998276406454,2.6217704748498996,-145.53213093562374,6.797286863347787,18.102065553991547
4.869999999999999,-5.49928303,9.39242886,376.4769854356386,-223.6334615495102,899.3391074660307,0.2737847232197246,-0.12,-2.632738502197601,-53.593030651230876,8.569507626899512,36.33487690672488,955.887770245038,-83.87498348223207,-150.39015541064683,-8.169123265634518,-2.1662152767802754,2.736676912470191,-146.96846140587738,6.94570767860733,18.236123064548554
4.886666699999999,-5.11588526,9.62314598,380.62330226612164,-226.9970230982713,895.6999083717577,0.09145486331155925,-0.20841972421931,-2.471454863311559,-54.7193310023819,9.145275868097267,36.49561871462599,967.6587446952641,-90.44767500710188,-173.90418673105827,-0.8418986691727213,-2.695150455628136,1.8345820239942663,-148.1877507266012,7.017198990406675,18.339030091125625
4.9033333,-5.2376934,9.66006588,385.15771300889406,-230.46429942527482,891.879348637486,-0.06151320993859505,-0.29947214877297323,-2.3184867900614052,-55.84109687288303,9.717085094294273,36.65587098184044,980.107432180241,-96.85048150171548,-198.6230989488868,6.642610629138401,-3.2050440331286505,0.902205196564754,-149.400569021656,7.086398833067459,18.441008806625728
4.92,-5.36789827,9.83938981,388.552756168967,-232.79585110832286,888.830556252614,-0.02528649100794006,-0.5090004182350538,-2.0742952739439513,-57.08107068172315,10.36789627770808,36.85252195734003,984.4087578419069,-92.51389376829741,-217.91746131325806,13.058854035968238,-3.902174822250117,0.018034295273937268,-150.74007946465915,7.233069845253036,18.590104558762025
4.9366667,-6.00523533,9.62338097,388.0326423125181,-231.22478554193611,888.4337683621271,0.6610493195637426,-1.1256302480455496,-1.5166474278544593,-58.72720422739116,11.290160023163779,37.17424186854551,960.7140863816236,-51.27476315027545,-218.57162513270922,15.804197278254968,-5.242674452272934,-0.7004735064182928,-152.51490097480936,7.645943731300064,18.90110047292732
4.953333299999999,-5.97155125,9.71391801,387.59728244408,-228.3794691000458,892.7876160798397,1.035015423805718,-1.431956380640005,-1.3905904316571294,-60.37743884565711,12.295062776982833,37.486910109222855,959.2235312140106,-27.306525595839858,-232.3474748229021,15.937481871794379,-5.217467529748622,-0.7113967965943118,-154.30823086854855,8.123820218445703,19.219487769131423
4.969999999999999,-5.39863183,9.75956463,387.3123020553443,-223.27308580800545,905.5710220888428,0.8547217084831086,-1.1876874760093727,-2.030342324737357,-62.03497784136497,13.446616184527242,37.78352235056005,997.1317388421645,-33.98320898907715,-269.40655721114945,11.43595491502987,-2.7689625571415695,0.5332114317617671,-156.13443172697754,8.717044701120095,19.550995568272995
4.986666699999999,-5.56888993,9.78033379,388.2696840650405,-219.74189971544737,907.1894102439028,0.3795895731707836,-1.1,-1.875647378048829,-63.31184589430886,14.207437398373939,37.88565703252033,1003.3178685772367,-32.98597091463458,-272.10881638211515,6.695234898374379,-1.0300924390244988,0.8735972967479809,-157.4805318292682,9.051603089430879,19.70040077235772
5.0033332999999995,-5.4282571,9.88120227,389.9227939837397,-217.09285882113832,902.5552824390246,-0.2606517682926568,-1.1,-1.276056280487829,-64.37552727642272,14.749440650406482,37.87888199186992,991.7393241056915,-27.691276646341677,-255.5709421544722,1.8205931504067028,0.3113656097560431,0.7076088008130148,-158.5577632926829,9.241304227642269,19.74782605691057
5.02,-4.6920147,10.10369005,391.5759138211381,-214.44380203252044,897.9211268292685,-0.9008969512194887,-1.1,-0.6764615853658755,-65.43921504065037,15.291447154471525,37.8721069105691,980.160710162602,-22.396550609756293,-239.0329686991876,-3.054077845528276,1.6528317073170238,0.5416193089430956,-159.63500121951216,9.431006504065033,19.795251626016256
5.0366667,-4.01829882,9.99853166,391.85248309484615,-221.0751224515637,901.5696479675825,-1.6622849183233988,-1.1872511080156998,-0.04404989236420098,-67.19510143092309,16.23071812080535,37.99118209446625,985.6728935038619,-56.61020539445263,-216.6094333291128,-6.494371660124045,3.1364024313029972,0.8729354185133492,-161.39025414714445,9.7129750538179,20.003891351146
5.0533333,-3.67911211,9.92824987,391.0077440947197,-229.0,906.4034851154581,-2.1878536549492473,-1.2399915722900372,0.38999157229003717,-68.85166918664511,17.142478496837782,38.1482026621562,994.0790744374171,-94.12134719811729,-196.1746469039562,-8.347828371819357,4.0981605236063885,1.2321210619208642,-163.0423250625092,10.015587586409774,20.250664303574062
5.07,-3.44890812,9.81830114,388.79417884983076,-229.0,904.2487521694367,-1.9182056184732943,-1.0904594793351905,0.24045947933519055,-69.38115987645244,17.48811825268423,38.25361053096044,989.2915961170759,-91.84649830857471,-188.4553590233855,-7.6295840564788655,3.455907927636392,1.0531728195322771,-163.5742670981027,10.260722165024276,20.402647742315054
5.0866667,-3.18861116,9.77359838,386.58061360494185,-229.0,902.0940192234151,-1.6485575819973415,-0.940927386380344,0.09092738638034392,-69.91065056625976,17.83375800853068,38.35901839976467,984.5041177967346,-89.57164941903213,-180.7360711428148,-6.911339741138374,2.8136553316663955,0.8742245771436903,-164.10620913369615,10.50585674363878,20.554631181056042
5.103333299999999,-3.17022345,9.79338412,384.36706164141793,-229.0,899.9392992057657,-1.3789111634063906,-0.7913961906162712,-0.05860380938372889,-70.44013807912927,18.17939569054272,38.464425636122954,979.7166682012062,-87.29681417855573,-173.01682957787932,-6.193099735255204,2.171406589204312,0.6952774084424228,-164.63814797764374,10.750989851448734,20.706613707898214
5.119999999999999,-2.81491147,9.49290121,385.8855494975752,-224.34533458015028,901.1057276444673,-0.8210558848702272,-0.18478207119535375,-0.7869797445081976,-73.0795825276571,19.09981583034836,38.49370780105875,964.1403128665163,-82.74123371477452,-166.98960693568299,-4.387526230703607,-0.3692141883538044,0.5039411037500139,-167.07933083969945,11.019680793736342,20.806224680635246
5.136666699999999,-2.73241638,9.50891535,383.69304925983465,-223.82758753605734,895.5584378863286,-0.21349557802646468,-0.2851616001521493,-0.7235821472723267,-74.12035974894597,19.305858021364937,38.361629473484015,969.8143978191267,-87.38510771230207,-172.01914964972875,-0.5572547310364078,-1.8220757916758454,-0.46287225409701716,-168.11482492788534,10.803072336513782,20.726977684090407
5.1533333,-2.21273834,9.4770586,381.91287667010573,-223.70679721434098,891.2679931390251,0.32662161465050277,-0.37598986329636314,-0.6902989811710084,-75.06422464534434,19.48499155274697,38.23602365230849,974.8050033273149,-90.04247837245293,-178.3578001289657,2.8666840727366507,-2.9891030564869747,-1.257704397730204,-169.05089694351304,10.61534121743616,20.656672298168687
5.17,-1.80759553,9.60530324,382.3836023987619,-225.75305700283724,893.838714469951,0.49857621872581925,-0.41467964921330935,-0.8214143667784372,-75.47906512767604,19.517233041011092,38.14574748516895,976.0645708021666,-81.85528978591694,-191.84333995357238,4.072515733814807,-2.5957568996646883,-1.1136924168171265,-169.4442431003353,10.585249161722981,20.63517797265927
5.1866667,-1.41440588,9.80828907,382.85432812741806,-227.7993167913335,896.409435800877,0.6705308228011357,-0.4533694351302555,-0.952529752385866,-75.89390561000775,19.549474529275212,38.055471318029404,977.3241382770184,-73.66810119938093,-205.32887977817907,5.278347394892965,-2.2024107428424022,-0.9696804359040488,-169.8375892571576,10.555157106009801,20.61368364714986
5.203333299999999,-1.12932897,9.9782399,383.3250510317255,-229.84556430229546,898.9801417075057,0.8424843951508791,-0.49205898890894784,-1.0836443513025453,-76.3087436033015,19.58171582409079,37.965195692545784,978.5836981944802,-65.48096173587876,-218.81433868970768,6.48417182099554,-1.809066946092364,-0.8256693190611388,-170.23093305390762,10.525065230848597,20.59218945060614
5.219999999999999,-1.08724377,10.01922581,383.79577676038167,-231.89182409079172,901.5508630384317,1.0144389992261955,-0.530748774825894,-1.214759736909974,-76.7235840856332,19.61395731235491,37.87491952540625,979.8432656693319,-57.29377314934277,-232.29987851431437,7.6900034820736956,-1.4157207892700778,-0.6816573381480612,-170.62427921072992,10.494973175135415,20.570695125096723
5.236666699999999,-0.62839386,10.35462449,387.31329409714215,-227.8580850569378,895.7852090402043,1.1107478503369643,-0.6063738089705282,-1.7384348129212053,-79.33165233557976,19.703695677434336,37.29682605159193,978.8689494538687,-59.00187020683218,-193.7330278875196,-4.069365210318385,-1.1386868463862871,0.42657401812684537,-172.97038275621654,10.228208691610506,20.345782593539397
5.2533332999999995,-0.62972217,10.35604678,377.3784047176391,-215.7218979006898,897.9865068169494,1.26567789914013,0.05853431714305868,-1.9320973739251626,-80.36451932760086,19.865081144937633,37.07088639708731,989.2686289797813,-63.10106108141594,-205.23658401115466,-4.0241772794174615,-0.43504620807190886,1.0979375629405639,-173.9128738864358,10.202387016809977,20.248951313037416
5.27,-0.0592079,10.96202678,380.10417700462375,-216.26536117063264,898.2944848877862,1.1371329085372768,0.002721044321645133,-1.8071329085372767,-80.64764632908536,19.939705650163525,36.95830918010601,984.191199954889,-61.45000789444011,-199.6875992443895,-5.2567598962444695,-0.8241894101725378,1.0043388406450926,-174.17271991654448,10.291690819893986,20.169632626592986
5.2866667,-0.02106261,11.07880553,384.1195416008796,-218.10035224709594,898.4096123688959,0.9797136996729474,-0.1265036793729537,-1.6497136996729473,-80.85440588699673,20.00549278222623,36.85727894158114,977.5373014548327,-59.21324540430815,-192.40167436844493,-6.619493346114784,-1.324641521935257,0.8328223891958977,-174.36303269144017,10.392721058418855,20.092097792376226
5.3033333,-0.01938451,11.08401577,388.13488210499617,-219.93533231363486,898.5247391592421,0.8222954353219762,-0.25572762772076574,-1.4922954353219762,-81.06116420435322,20.071279519566936,36.75624930923649,970.8834428780871,-56.9764963347242,-185.11579320796193,-7.982218619600802,-1.8250906309913288,0.6613069668433472,-174.5533443244615,10.493750690763509,20.01456342336754
5.32,0.20031116,11.80847096,392.15024670125194,-221.77032339009818,898.6398666403518,0.6648762264576468,-0.38495235141536455,-1.3348762264576468,-81.26792376226459,20.13706665162964,36.655219070711624,964.2295443780306,-54.73973384459224,-177.82986833201736,-9.344952069471116,-2.325542742754048,0.4897905153941524,-174.74365709935716,10.594780929288376,19.93702858915078
5.3366667,0.12151055,11.93330494,367.672477942727,-233.74001053931113,890.3337557589809,0.6161226474750927,-0.46578812972388295,-1.1183071456532878,-81.19488090577853,19.516396368454313,35.62013686048961,980.8562547803301,-66.96903252130372,-204.47797681351554,0.8702329187873659,-4.878955915565044,1.223816555752917,-174.30724279562767,10.560314252160547,19.07759757896954
5.353333299999999,0.13556746,11.98413585,386.5427890029803,-219.03522027161372,888.2509953627031,0.9222633322292024,-0.8371719112288684,-1.148419344153692,-80.6930109307718,18.868984100695624,35.14336038423321,968.2342249089107,-45.403679695264216,-236.82851540244982,9.22636800264954,-4.482478635309722,0.02936601523688287,-173.64477442861877,10.198967870155697,18.645989400463748
5.369999999999999,0.15963108,12.09081766,392.95322166182984,-213.8380695105801,888.5785561128173,0.8897185201882268,-0.93520455890226,-1.0097185201882266,-80.05638063170947,18.30643191231582,34.84728889014117,964.4738757713222,-37.28629173593304,-244.89449691471108,10.23779831506594,-3.9514062720126484,0.16968090501813343,-172.92904046096194,9.825907694908585,18.354283762080538
5.386666699999999,0.1097341,12.7833668,391.5772832267336,-214.58239115550418,890.4123580203432,0.6455246682257565,-0.8624160068749851,-0.7655246682257564,-79.33553916485873,17.796912048124895,34.66414350116932,966.2513252514722,-37.572749908427475,-237.78469899411147,6.659419176692817,-3.33622560649181,1.1441082950606831,-172.18002278042323,9.44552881012089,18.1500062128427
5.4033333,0.22110196,12.99309017,390.2013530472514,-215.32670833450734,892.2461489250796,0.4013322814234589,-0.7896278915781464,-0.5213322814234588,-78.6147020230481,17.287395241047026,34.4809992110676,968.0287640669466,-37.85920636217632,-230.6749437322138,3.0810615085514534,-2.7210486320475598,2.118529838550621,-171.43100959398157,9.065152207601926,17.9457298892677
5.42,0.29120149,13.35544624,388.8254146121552,-216.07102997943142,894.0799508326055,0.15713842946098855,-0.7168393395508716,-0.27713842946098843,-77.89386055619735,16.7778753768561,34.29785382209574,969.8062135470965,-38.145664534670765,-223.56514581161417,-0.4973176298216675,-2.1058679665267213,3.092957228593171,-170.68199191344283,8.684773322814232,17.741452340029866
5.4366667,0.29020581,13.35444731,388.4452262019812,-228.52749166465335,894.4157401848272,-1.030608782314569,-1.0890452403962398,0.5969560884271542,-70.25331668277369,13.188005647499425,33.85547904083112,979.9727294938392,-54.053243476685324,-209.59932797777253,3.658438119110913,-2.494785425223498,3.280083172263813,-162.82601295602808,7.488261808407833,16.85730538777483
