time,ankle_angle_r,ankle_angle_l,imu0_acc_x,imu0_acc_y,imu0_acc_z,imu0_gyro_x,imu0_gyro_y,imu0_gyro_z,imu0_roll,imu0_pitch,imu0_yaw,imu1_acc_x,imu1_acc_y,imu1_acc_z,imu1_gyro_x,imu1_gyro_y,imu1_gyro_z,imu1_roll,imu1_pitch,imu1_yaw
0.0,2.89879712,10.26990728,420.65,-143.55,933.35,-2.01,-1.1,3.35,-21.36,-4.52,32.61,899.66,-375.0,-185.3,-30.67,11.04,5.67,-97.04,-4.6,-4.93
0.016666700000000034,2.63772691,10.35223248,362.1086446058166,-205.66900762123873,845.4720587770071,-6.552955063450395,1.2137674443685564,3.782562821296321,-21.824845058777008,-2.432039364417441,31.455791458460652,1007.0649499227089,-188.0105221267569,-48.12150896933525,0.7750349426609056,9.908041593270308,1.7929369090843699,-98.22931462774562,-4.625986878527519,-5.871402847179783
0.03333329999999979,2.7210706,10.68312793,365.4493945869165,-176.11786984514168,905.8832510305854,-0.9170021615279438,1.5971373650975609,0.6004904969970234,-21.791530083836403,-1.9776887245441515,30.782317281415498,936.2762060244868,-172.44550612175507,-37.521204156309125,-17.456394478840256,11.556023437138133,0.8208134910219381,-98.7603875928299,-4.814461053899239,-6.135306844323669
0.04999999999999982,2.87852016,10.79900889,367.9608891599376,-199.23597152958953,923.8497009371765,3.2233613302659774,-3.1891125384056687,0.35088499127669376,-21.90475319983325,-1.7898412820948313,30.180176164523157,951.1650457780727,-227.98144451821025,-54.798022356374005,-11.841557226450984,11.900839290401269,0.9314633543824966,-99.19269403572696,-5.010028254257436,-6.477549444950513
0.06666669999999986,3.03386161,11.01104374,370.47238373295863,-222.35407321403738,941.8161508437677,7.3637248220599005,-7.975362441908899,0.10127948555636401,-22.017976315830104,-1.601993839645511,29.578035047630816,966.0538855316586,-283.5173829146655,-72.07484055643889,-6.226719974061712,12.245655143664406,1.0421132177430552,-99.62500047862403,-5.205595454615632,-6.819792045577357
0.08333329999999961,3.17880579,11.07630879,372.9838632370423,-245.47203619015215,959.7824929518747,11.504063471722485,-12.761583627970062,-0.14832452253392236,-22.131198752489613,-1.4141475242785946,28.97589754357796,980.9426359523843,-339.0529880961558,-89.35155509580159,-0.6119164106286732,12.590468928036554,1.1527624172057593,-100.05730432768762,-5.40116148157297,-7.162032592752698
0.09999999999999964,3.14184852,10.8854466,357.59176433915303,-197.2201259351655,917.7520374064867,0.40387780548702956,0.7345735660838937,-0.8544289276807677,-23.25178428927675,-0.49281670822947055,26.481971321695877,961.322763092271,-160.40480049876473,-118.36629551122093,8.62150374064806,7.736759351621224,-7.283961346632954,-102.00774688279293,-6.425023690773018,-9.033286783042303
0.11666669999999968,3.18390546,10.72449175,371.5083547294143,-168.12774523639334,913.8270048490875,-2.967938733642094,4.308390786733397,-0.7487049516645474,-24.292452208510753,0.03458241894873543,24.999294892916,973.3855272450339,-170.15208392651647,-113.68582263529285,-0.7939783656085542,11.163977588511298,-5.093892201050723,-103.37654418575734,-7.2483602312641695,-10.113325759224132
0.13333329999999943,2.99216088,10.48867011,390.987517950949,-151.68443032544894,922.6806989835563,-3.2839570731403955,4.152971931242429,-0.49485415436263325,-25.173159056292906,0.4127683006434239,23.901001647446492,993.7505779428672,-233.64586702309322,-103.94624102452552,-12.574727611823922,16.18400662086956,-0.5763841347799232,-104.45929554567775,-7.927022566908063,-10.885239408162604
0.14999999999999947,2.99879245,10.46215892,383.36879093284495,-155.09238895110104,920.8861763208796,-2.799044080219908,4.55496928976211,-0.5232851471037351,-25.608838101055333,0.5448193016390064,23.555469815738583,992.3786609657607,-207.63829719366203,-86.96486952390703,-14.677837049102386,14.723919372900387,-1.1501554175574116,-105.0153361159184,-8.306136618141085,-11.116353456174277
0.1666666999999995,2.9912834,10.18534965,375.22179532729336,-158.8873449048151,918.8840684108725,-2.2985171027181255,4.967833350300303,-0.5572191794767373,-26.035841341748945,0.6720719230377646,23.22461300010181,990.5829850860226,-179.88591438460838,-69.84232235569633,-16.592282042145925,13.137503359462535,-1.8231803929552886,-105.56110846991753,-8.67941097424411,-11.336924666598792
0.18333329999999926,3.03863662,10.13592491,367.07484860361774,-162.68227808883893,916.8819725134888,-1.7979931283722104,5.380694933659081,-0.5911530082459518,-26.462842020428226,0.7993237809223195,22.89375816960197,988.7873199803183,-152.13369808951904,-52.71987792256346,-18.506715548542452,11.551096864501751,-2.4962013302113784,-106.10687754928905,-9.05268309070547,-11.557494553598687
0.1999999999999993,2.98017596,10.07667384,368.5365716911759,-175.7687867647048,922.0902941176464,-1.274816176470612,4.486240808823639,-1.1480422794117122,-27.38787683823523,1.1764797794117348,22.444384191176496,995.6086397058816,-174.96186580881982,-42.379099264705964,-16.375799632353253,11.582628676470499,1.080183823529027,-107.64954044117636,-10.07046874999992,-11.918373161764682
0.21666669999999932,2.93960711,10.04173469,368.16548504628213,-179.82212528486627,911.0004507779316,-1.8840121824268818,3.781781616633383,-0.8579190839265396,-27.93277297920827,1.5093570323270307,22.268019638184736,995.9135537799287,-181.72021239062602,-40.36004436879281,-9.919588329629157,9.091673972371645,2.952277297920827,-108.82034839490191,-10.821288298680452,-11.970593872211127
0.23333329999999997,2.88678213,10.06387884,364.15627282446616,-178.4482081141153,893.2567559857075,-2.7983939172270187,3.556703035759503,-0.17330506710182192,-28.21412120530062,1.748503024505528,22.20237171876319,991.6745738401373,-167.63873367470393,-38.301513181217125,-3.6549011619728358,5.4060122105618635,2.980412120530062,-109.56592119404664,-11.290202008834369,-11.8955676785865
0.25,2.7858212,10.0665509,360.0195165065923,-178.34876742745016,893.9499339047816,-2.578596681469242,2.5798292540190717,0.11862456538951424,-28.42724913077903,1.8678223002512995,22.07031532927123,985.9825556817791,-163.5794259699129,-30.489407552755694,-2.223494784674171,3.78123257254983,3.7275348549003406,-110.08286498674653,-11.627764811181107,-11.84730661984922
0.26666670000000003,2.35024493,9.90610491,355.81683904781573,-178.90816818134874,904.1740584529589,-1.7724858514923048,1.2143176701435485,0.20755494165031513,-28.605109883300628,1.9251967365485902,21.90392946400909,979.5394064855933,-164.70109619952495,-19.703013528865007,-3.2906592998037816,3.2218318186512436,4.846336362697513,-110.4816173190127,-11.897424661778375,-11.812881958070845
0.2833332999999998,2.33267986,9.9027723,351.6141868050536,-179.46756557884953,914.3981216565113,-0.9663798581706877,-0.15118572067883473,0.2964847843299241,-28.782969568659848,1.9825708285999508,21.737544597060143,973.0962959482255,-165.82275969912905,-8.916684223209206,-4.35781741195909,2.6624344211504773,5.965131157699045,-110.88036725876965,-12.16708289441977,-11.778457502840029
0.2999999999999998,1.71844227,9.58974483,359.44468345437247,-178.03714398484382,922.070052099779,0.01927691821911337,-2.142047679191606,0.28561967161352003,-29.18314098515944,1.9889501105146854,21.312650773602797,973.6173287022415,-183.22925007893795,-18.70734685822419,-0.35962425007926857,1.0437614461636398,6.821583517524475,-111.54067966529836,-12.608932743921677,-11.843502526049884
0.31666669999999986,1.61790379,9.57312598,389.8155635478323,-173.68845773682824,921.7354726652476,1.2948003907047219,-4.865199609295278,0.0863548123742581,-30.303080940023904,1.807826719538153,20.0769190599761,989.7810896288306,-229.79413409336115,-72.12530384581765,11.211668425809954,-2.795694696329127,7.15231040615796,-112.99136148934308,-13.58295716826544,-12.32467661894626
0.3333332999999996,1.48765923,9.52968568,370.7129001661957,-178.6694371227803,927.3141695775139,1.7661711228387211,-4.393828877161279,0.29531297198005163,-30.939674403008993,1.705777385777184,19.440325596991006,980.9999874333034,-207.4939249205475,-48.15828888824152,-0.762120068810404,-2.615893489226467,8.512968189637546,-113.79317768317927,-14.146658249992697,-12.723154969822424
0.34999999999999964,1.16893657,9.47265361,362.20672976068454,-178.33514658307735,930.851672996162,2.2664072578214363,-4.074525488777705,0.28477766391384707,-31.53688448168464,1.686423533666885,18.895490787067743,974.4389073080556,-205.29605963791195,-41.34120622098931,-5.532700785661355,-2.666648582393946,8.991233749271629,-114.55283079148832,-14.650460948017754,-13.07403741435087
0.3666666999999997,1.33673826,9.59664155,372.9166593525828,-168.3619851307093,930.6875746378122,2.8189833624690954,-4.0309891896236465,-0.12379375891654337,-32.06266901762211,1.8170324311290589,18.517059879036317,971.903755118854,-239.55242917997808,-65.62441431068734,2.7592897301423065,-3.135501034822263,7.8693368095324425,-115.23601579359816,-15.04563658649305,-13.338604155363992
0.38333329999999943,1.64997399,9.81857059,383.6265246850319,-158.38888351719044,930.5234772640505,3.3715561516667485,-3.987453151686862,-0.5323627303232927,-32.58845039885867,1.947640544939413,18.138631241585802,969.368618140535,-273.80859318423745,-89.90747670142783,11.051230494102239,-3.6043506741414832,6.7474466011614505,-115.91919669660616,-15.44080985391925,-13.603169308979837
0.39999999999999947,1.99485603,10.28138467,383.0027465459749,-157.11301238685044,926.3368442115296,3.4325364459266567,-3.5669375893282855,-0.39693758932828566,-33.50079371129104,2.229464506908034,17.568536922344002,967.8433325393044,-270.05747451167446,-102.28376512625084,15.22401143401629,-3.917599809433062,4.966411624583228,-117.04812577417812,-15.974530252501166,-13.784666507860885
0.4166666999999995,2.40413062,10.36680124,365.8872382140549,-168.414878764751,916.9995225738271,2.80566999354193,-2.7088159748722824,0.5596890154406127,-35.01949785710089,2.725610080432098,16.699485498737765,968.3354312804555,-212.10793715141108,-92.56866673516188,12.289747989197547,-3.8189709974755277,2.4289833558386524,-118.86295482299063,-16.723516878999572,-13.841531145423584
0.43333329999999926,3.07598634,10.78413238,371.86091243468536,-161.36975929078878,921.5397106792694,3.4025481711970613,-3.5160692479304516,0.6477530088651402,-36.10562044267006,2.86749095872717,16.05857532437037,971.2024035108318,-240.53792969529607,-68.56144363881984,8.742726031820741,-2.537150648740737,2.874195767040431,-120.07138851053831,-17.30082528033814,-14.037228908589201
0.4499999999999993,3.34608486,10.89815494,377.5512121212121,-155.5155152821312,925.7332621473354,3.903195532915397,-4.2421969696969875,0.724247648902825,-37.16266327063738,3.0059920323928906,15.43267633228842,973.9502266196447,-266.32925156739856,-46.67832419017729,5.731039707418825,-1.483329414837944,3.174713296760784,-121.24841562173457,-17.868282392894443,-14.233901515151507
0.4666666999999993,3.80561904,11.33349204,379.2347171717171,-166.49820879049065,925.0257546368862,3.043301789446221,-3.821320707070724,0.6371698014629085,-37.808490639150094,3.096698123476137,15.019056556948815,975.0133020071403,-254.81320624346964,-54.82735941309615,10.288113723441123,-3.653019113549197,1.4295281043191237,-121.98132083768719,-18.296415142807366,-14.444339646464638
0.48333329999999997,3.8935017,11.37759742,380.9182121212121,-177.4808364028213,924.3182513714734,2.183413205329156,-3.400446969696971,0.5500924764890285,-38.45431413270637,3.1874036703239286,14.605439263322886,976.0763710161964,-243.29723001567402,-62.976345741901746,14.845160397074174,-5.822695794148374,-0.31564661703238794,-122.71422165621735,-18.724545323928943,-14.654776515151514
0.5,3.80273227,11.46077697,381.01950570342206,-181.62838102861718,922.0625095057035,2.3569461677006194,-1.8613868320992617,0.010400240144087247,-39.10465679407645,3.281008605163098,14.17115869521713,979.8385071042625,-247.91675405243143,-71.22539523714228,13.917536521913153,-6.1602781669001425,-1.0796778066840111,-123.49287572543525,-19.152303382029217,-14.81240344206524
0.5166667,3.7713061,11.35014066,377.5974456273764,-170.55504822893732,916.3590760456274,4.831769341604974,2.167705343205942,-1.5371980788473156,-39.76505435261157,3.381068841304783,13.69086956173704,989.6110568341005,-288.46783241945184,-79.69716189713832,0.7762921753051231,-2.4180253352011034,0.3411775465279232,-124.3734058034821,-19.57922705623374,-14.852427536521914
0.5333332999999998,3.66569808,11.21561364,377.2240969456141,-163.56793053792782,912.3450789039796,4.910493814127281,3.4285038016724925,-1.83,-39.91564649783524,3.3711476899353543,13.508634351461954,987.8198002135106,-288.7826609335153,-89.43955725045953,0.049990913943397386,-1.9440242927465718,-0.36777272996855404,-124.62976274242335,-19.720910432358696,-14.896866840638157
0.5499999999999998,3.7068373,11.1891456,377.5621558626416,-157.53427080244356,908.7252784532353,4.4300943004566795,4.043336101061616,-1.83,-39.94727774153372,3.335562540774569,13.395948045786135,983.3301405610581,-279.70844789751504,-99.4785232192633,2.2206850127513,-2.232659391495164,-1.5737138959729444,-124.740472095368,-19.796034636142576,-14.942336753454716
0.5666666999999999,3.77715852,11.14517308,377.90021477966906,-151.5006110669593,905.1054780024909,3.949694786786078,4.658168400450739,-1.83,-39.97890898523219,3.299977391613784,13.283261740110314,978.8404809086057,-270.6342348615148,-109.51748918806706,4.3913791115592025,-2.5212944902437555,-2.779655061977335,-124.85118144831267,-19.871158839926455,-14.987806666271275
0.5833332999999996,3.8110157,11.17125948,378.23827166834707,-145.46698753336116,901.485699270506,3.4692981555068023,5.272997010853434,-1.83,-40.010540039143585,3.264392455963467,13.170576110550979,974.3508481940574,-261.560076270684,-119.55639492319531,6.562060186228524,-2.8099278571852135,-3.98558899234918,-124.96189013700254,-19.946282592966014,-15.033276306268903
0.5999999999999996,3.65446176,11.15792098,378.57633058537454,-139.4333277978769,897.8658988197617,2.988898641836201,5.887829310242558,-1.83,-40.042171282842055,3.2288073068026817,13.057889804875158,969.861188541605,-252.4858632346838,-129.59536089199906,8.732754285036428,-3.0985629559338053,-5.19153015835357,-125.07259948994721,-20.021406796749893,-15.078746219085462
0.6166666999999997,3.57692711,11.29701976,374.37895967826165,-167.1267717538909,914.9717209338764,1.6811476026324077,3.8810925519690573,-1.807185574010223,-38.792951112503935,2.338634075002624,12.189644991120872,968.3844774887702,-228.16677175389088,-73.1233317664263,-3.21511245168724,0.1244271388280116,-7.86775890525432,-124.29901660921342,-20.257213099341897,-16.263770291444676
0.6333332999999994,3.25050571,11.25669627,376.7677859301866,-169.6242498565218,916.6407708426327,1.7206084378068767,4.434334974301416,-2.18871388488566,-38.21141792396282,1.966123021591914,11.87686326824727,974.3258274305244,-232.85823196316758,-75.87855677281942,-0.1767993215063608,-0.8401571120662399,-8.68662495376807,-123.86736520042344,-20.274008787256566,-16.664247101735764
0.6499999999999995,3.17024998,11.19665879,375.5753183945721,-163.03273144664539,918.6112118506803,1.952299991072446,4.512982565776885,-2.2928688033261455,-37.94784221199098,1.8173302809626493,11.80034128735222,975.985929293831,-230.15870652603664,-76.65653024525243,-3.0803833743574405,-0.16633855807371267,-8.414546799474559,-123.66755780586413,-20.263380734354477,-16.849175222232134
0.6666666999999995,2.68130809,11.047055,374.38285085895757,-156.44121303676894,920.5816528587278,2.1839915443380153,4.591630157252354,-2.397023721766631,-37.684266500019135,1.6685375403333849,11.72381930645717,977.6460311571375,-227.4591810889057,-77.43450371768544,-5.98396742720852,0.5074799959188145,-8.142468645181046,-123.46775041130483,-20.252752681452385,-17.034103342728507
0.6833332999999993,2.24904878,10.91717107,373.1903904781339,-149.849734175924,922.5520820441529,2.4156817074570416,4.6702772768432155,-2.501178015278853,-37.42069236949841,1.5197456924587809,11.647297784693087,979.3061230598528,-224.75967184889504,-78.21247252228694,-8.887534058590077,1.181294507008092,-7.870392123353199,-123.2679442155875,-20.242124692318484,-17.219030353658372
0.6999999999999993,1.83525815,10.9751003,371.9979229425194,-143.25821576604758,924.5225230522005,2.6473732607226106,4.748924868318684,-2.605332933719339,-37.15711665752657,1.3709529518295163,11.570775803798037,980.9662249231593,-222.0601464117641,-78.99044599471995,-11.791118111441154,1.8551130610006192,-7.598313969059687,-123.06813682102822,-20.231496639416395,-17.403958474154745
0.7166666999999993,1.72126398,10.92482305,375.6264643043061,-154.1355009295752,921.015577600952,1.9618140849259662,8.117906150070553,-3.2860920651445884,-35.013795121588494,0.4796028854019678,11.868824458987131,974.5182536625265,-210.25881772886117,-64.76755878634552,-9.59592964973566,-0.31528203316729675,-11.40611913437941,-121.41414936417047,-19.725410649215444,-17.516274819662375
0.7333333,1.97800948,10.90434739,367.8956054207617,-156.77657575757576,919.8714300778051,2.7494953803235056,9.809063702907453,-4.3085104550573305,-34.27603112203113,0.044027231777231765,11.921009239352989,983.6626570306101,-215.6855654048935,-85.33639138001638,-15.918146857084356,0.5945075373669123,-11.550485168407043,-120.77603112203113,-19.639000486281738,-17.586977144758393
0.75,1.92968483,10.91752235,362.5848863636364,-151.7260606060606,924.8707575757576,2.79001893939394,9.25026515151515,-4.216799242424242,-34.00303030303031,-0.1948484848484854,11.839962121212121,991.0571401515151,-215.11183712121212,-99.44712121212125,-14.629924242424238,0.5283901515151513,-11.680587121212122,-120.5030303030303,-19.63473484848485,-17.787462121212123
0.7666667,2.114171,11.12376292,357.274167306511,-146.67554545454544,929.8700850737101,2.8305424984643737,8.691466600122848,-4.125088029791154,-33.73002948402949,-0.43372420147420265,11.758915003071253,998.4516232724202,-214.5381088375307,-113.55785104422611,-13.341701627764122,0.4622727656633904,-11.8106890740172,-120.23002948402949,-19.630469210687963,-17.98794709766585
0.7833332999999998,2.3698728,11.14971571,351.9634801136364,-141.62506060606066,934.8693825757575,2.871065814393939,8.132671401515157,-4.033377367424244,-33.45703030303031,-0.6725984848484825,11.677868371212123,1005.846062026515,-213.96438399621212,-127.66849621212106,-12.053486742424255,0.3961557765151522,-11.94079024621212,-119.95703030303031,-19.62620359848485,-18.18843087121212
0.7999999999999998,2.23310069,11.24394875,346.6527610565111,-136.5745454545455,939.8687100737101,2.9115893734643734,7.5738728501228545,-3.9416661547911556,-33.18402948402949,-0.9114742014741998,11.596821253071255,1013.2405451474201,-213.3906557125307,-141.77922604422594,-10.765264127764137,0.3300383906633912,-12.070892199017198,-119.6840294840295,-19.621937960687962,-18.388915847665846
0.8166666999999999,1.96328835,11.10176489,347.44087977460083,-169.386088230845,934.3777986158385,0.05233722865138285,7.298192421148173,-1.906384842296345,-30.367939717116727,-1.7391350881173855,11.092711368277742,980.7570944709173,-176.4755597156034,-79.61443638907795,-11.11181718478186,3.091710384993579,-15.8938678617351,-116.63070940170941,-19.468036910974973,-21.873673474018602
0.8333332999999996,1.54707321,10.64201183,363.4443959231522,-157.69387773239572,921.9166125482191,0.512461954466368,7.373829362378033,-2.057658724756066,-28.640896225701578,-2.054289009908471,10.97925595643295,992.4556080478025,-229.1062646547147,-82.07894005748425,-4.619646395885493,2.3227348158233303,-17.54527441192039,-115.20621367521372,-18.434332047500217,-22.138402768323115
0.8499999999999996,1.26523211,9.85444485,355.2646972937522,-155.77968403342177,923.8311462343513,1.361903499016149,7.659364644822761,-2.4955945760971745,-27.73611229931276,-2.3702773262611503,10.775754270396675,989.5207203353581,-212.67245287592374,-74.39231385633236,-9.319356945276056,3.205038212564496,-16.94885034362793,-114.27809650098385,-18.035714774574394,-22.61178501154931
0.8666666999999997,0.83351948,8.9511144,344.9368280434599,-154.7340645050903,927.0226622037812,2.2459272820600376,7.963544871246465,-2.9589941397895356,-26.904369492685447,-2.6863395927795297,10.564253956711443,985.2859612456156,-190.1037059200963,-65.8039752759006,-15.013230558644759,4.234022884763431,-16.15275365728464,-113.39407271793996,-17.693512019847727,-23.10370147146889
0.8833332999999994,0.32723579,7.9523914,334.60902076025934,-153.68845125046343,930.2141590241537,3.1299457609718218,8.267723272592455,-3.4223909230900675,-26.072631676505008,-3.0023999629280977,10.352754912025558,981.051227564377,-167.53509437648012,-57.215688225397415,-20.707070008840013,5.263001383066664,-15.356661747511936,-112.51005423902818,-17.35131131833349,-23.59561497989561
0.8999999999999995,0.08874343,7.27718641,324.281151509967,-152.64283172213197,933.4056749935836,4.01396954401571,8.571903499016159,-3.8857904867824287,-25.240888869877693,-3.318462229446477,10.141254598340327,976.8164684746345,-144.96634742065268,-48.627349644965655,-26.400943622208718,6.291986055265599,-14.560565061168647,-111.62603045598429,-17.009108563606823,-24.087531439815194
0.9166666999999995,-0.47264544,6.52656454,349.7089714980855,-123.26717949768381,930.9988016403859,2.1258443305519763,3.9653488620972084,-1.9458443305519764,-20.52444199287663,-5.6059831864622085,8.761760672541511,988.347509205224,-210.46400885407132,-101.4353577997762,4.565943899135592,0.8639361904920904,-16.102674431048605,-105.89571064160663,-14.67422940320721,-28.21915308596558
0.9333332999999993,-1.29936508,5.91962277,346.5109841897565,-131.77145685835123,931.1339671170342,2.210845300402986,4.338795746032791,-2.030845300402986,-19.9071398675652,-5.919511353945441,8.749219545842182,983.2446640971192,-194.8837491179379,-92.69140557329939,1.3024640402656829,1.7223066401350724,-16.289397873016394,-105.1585710833905,-14.20881425680988,-28.43095878133203
0.9499999999999993,-2.02184575,5.5993612,343.3129776934269,-140.27578524488703,931.2691334046787,2.295846780261856,4.7122448706586475,-2.1158467802618564,-19.289834038426193,-6.233041402605208,8.736678343895791,978.1417883718211,-179.3033958998719,-83.94740088289922,-1.9610353995617578,2.580682240021367,-16.476122435329323,-104.42142710231931,-13.743396317910493,-28.64276574753774
0.9666666999999993,-2.88110812,5.06320425,340.11497119709725,-148.78011363142284,931.4042996923231,2.380848260120726,5.085693995284503,-2.2008482601207264,-18.672528209287183,-6.546571451264975,8.7241371419494,973.038912646523,-163.72304268180588,-75.20339619249906,-5.2245348393891975,3.4390578399076626,-16.66284699764225,-103.68428312124813,-13.277978379011106,-28.854572713743448
0.9833333,-3.7041755,4.53007734,336.91698388876813,-157.2843909920907,931.5394651689714,2.4658492299717403,5.459140879220106,-2.2858492299717406,-18.05522608397572,-6.860099618748223,8.711596015250072,967.9360675384179,-148.14278294567163,-66.45944396602178,-8.488014698259281,4.29742828955069,-16.849570439610055,-102.94714356303196,-12.81256323261375,-29.066378409109912
1.0,-4.8280618,3.89627792,333.7189773924385,-165.78871937862652,931.6746314566159,2.550850709830611,5.8325900038459615,-2.3708507098306106,-17.437920254836712,-7.17362966740799,8.69905481330368,962.8331918131198,-132.5624297276056,-57.71543927562162,-11.75151413808672,5.155803889436985,-17.03629500192298,-102.20999958196077,-12.347145293714362,-29.27818537531562
1.0166667,-5.86139583,3.04173889,330.5209708961089,-174.29304776516233,931.8097977442603,2.635852189689481,6.206039128471817,-2.4558521896894807,-16.820614425697705,-7.487159716067757,8.68651361135729,957.7303160878217,-116.98207650953961,-48.97143458522145,-15.01501357791416,6.01417948932328,-17.22301956423591,-101.47285560088959,-11.881727354814975,-29.48999234152133
1.0333332999999998,-6.15802916,2.49648926,328.05824188755474,-128.35026898846965,945.7055899203614,2.4271933911803147,4.741615476048949,-3.1597994769998685,-14.735395043385235,-12.568083739450854,11.154268869606563,983.8962677404018,-87.65038696065706,-47.67175811244528,-7.909562938309573,-1.0503007845001977,-10.918083739450854,-100.3344870438607,-11.819882087245931,-29.79349643409009
1.0499999999999998,-6.57032983,1.27135298,339.35448021756304,-157.41260519928656,941.8707866187092,2.580259964324354,5.884201245723313,-3.975538789952333,-14.788111530251191,-12.395107757990468,11.118669181507151,985.110231599263,-38.81336052870124,-33.30958914524665,-18.58866918150715,-0.23365704593969533,-9.999162207211176,-100.07411907477264,-11.65,-30.155620960903004
1.0666666999999999,-6.60259296,0.88185191,329.89456715501365,-149.08339787115835,943.059977132497,2.7873935579144353,5.482118387577861,-4.170488054507704,-14.783237798637307,-12.43409761090154,11.089426791823845,990.1691650144749,-50.77106104336628,-34.8569989326549,-18.559426791823846,-0.9915223118986982,-8.113028072637967,-99.98151817410884,-11.65,-30.041088267976725
1.0833332999999996,-6.88485353,0.59410092,320.4347108518293,-140.7542405181743,944.2491605111559,2.994525908705437,5.08003794192474,-4.365436149369823,-14.778364096265754,-12.473087229873965,11.060184577594526,995.2280680761469,-62.72868981197153,-36.40439943562297,-18.53018457759453,-1.7493830306751872,-6.226905254846962,-99.88891782904933,-11.65,-29.926556262245228
1.0999999999999996,-6.73193608,0.52962051,310.97479778928,-132.4250331900461,945.4383510249437,3.2016595022955183,4.677955083779287,-4.560385413925194,-14.77349036465187,-12.512077082785039,11.03094218791122,1000.2870014913588,-74.68639032663657,-37.951809223031226,-18.50094218791122,-2.5072482966341902,-4.340771120273751,-99.79631692838554,-11.65,-29.81202356931895
1.1166666999999997,-6.56741798,0.70170316,331.1066258749285,-133.8960535857718,946.9262882386689,1.9733346242111236,2.972742971887561,-3.127842484222608,-14.65901959265634,-12.946078370625358,10.940980407343659,1005.1054898164085,-35.82181290877773,-120.48995662650624,6.640152553069639,-8.973127079747613,-4.258812048192828,-99.26078370625359,-11.704117555938039,-30.10666537578888
1.1333332999999994,-6.67841991,1.11140726,318.2648336775678,-126.07432162937491,951.248321055651,2.3797204532415237,2.3034016064257257,-2.9222590648307585,-14.65423858290304,-12.926954331612164,10.945761417096959,1004.985964572576,-50.9967378657482,-106.8353927710848,-7.062221399884791,-5.769850545037401,-0.6443686746989172,-99.06954331612164,-11.675431497418247,-29.700279546758477
1.1499999999999995,-6.79309242,1.2606314,307.6192169538037,-119.17517334959597,954.7562322000306,2.6540847690196943,1.676556487269411,-2.7068447934136404,-14.651153224576918,-12.905098795548103,10.948558469278852,1004.8096533008081,-65.05544290288135,-95.34236225034286,-18.577168013416873,-3.0634857447781267,2.5179073029425347,-98.8881794480866,-11.650864918432688,-29.35499191949992
1.1666666999999995,-6.82313335,1.28804713,314.1344508004267,-119.48518057630736,951.9026410885807,1.896854002134497,1.3817955176094014,-2.4146248665955277,-14.661317395944504,-12.861901067235861,10.93585325506937,1004.1896388473853,-70.39163287086429,-100.73953724653131,-12.999578975453762,-4.239988580576268,2.146915048025626,-98.78399669156884,-11.658488046958377,-29.487126147278545
1.1833332999999993,-6.64136711,1.30039809,320.64964555572465,-119.7951859429791,949.0490670986433,1.1396277786248272,1.0870363165116776,-2.122406693093474,-14.671481506327183,-12.81870359810947,10.92314811709102,1003.5696281140418,-75.72779082177135,-106.13667985973446,-7.42202340295804,-5.416484357371493,1.7759250190578013,-98.67981456014637,-11.666111129745387,-29.619259582253385
1.1999999999999993,-6.76940834,1.27920219,327.1648794023476,-120.10519316969048,946.1954759871933,0.3823970117396298,0.7922753468516681,-1.8301867662753608,-14.68164567769477,-12.775505869797227,10.910442902881538,1002.9496136606191,-81.06398078975428,-111.5338548559229,-1.8444343649949282,-6.592987193169634,1.4049327641408926,-98.57563180362861,-11.673734258271077,-29.75139381003201
1.2166666999999993,-6.78655691,1.28457885,332.38758728388177,-117.93795073433786,944.9258533184604,0.096548986800433,-0.05689161554176447,-1.3196573712586686,-14.629310838445823,-12.756551589514775,10.944137572039402,1004.5972238334258,-80.4679715560526,-114.62380405279826,-4.222701989215516,-5.104847555308316,3.3179129949799027,-98.28034653281284,-11.542070087376871,-29.86
1.2333333,-6.75156651,1.38333021,326.3763318672001,-128.69518102329027,944.6932982962826,-0.022822447735882267,-1.0334737818287782,-0.6391890516944458,-14.542228610794627,-12.79643997244376,10.998885694602686,997.7721175114598,-92.7410172756418,-99.51303746588597,-8.841286796852234,-4.031621896611108,5.418393974722449,-97.95136016533743,-11.384674332953551,-29.71646872101958
1.25,-6.61038626,2.01928287,319.4740102276039,-143.57292997005914,943.3993889934023,-0.48209400916775014,-1.5987310882064618,-0.10042818155321609,-14.49806788373387,-12.82735248138629,11.020966058133064,987.7432163959619,-111.8228674385947,-83.12499165363923,-7.62686680268143,-5.109143636893568,5.767263718502425,-97.76588511168225,-11.331681460480645,-29.548657958188706
1.2666667,-6.63607582,2.14960759,316.65,-148.86763765869745,943.0291219455895,-0.31441116240725075,-1.7699233470733713,0.07128920032976037,-14.463763066776588,-12.843247386644682,11.038118466611706,985.9001811046991,-111.50341492168168,-73.8026063643858,-6.813379802143443,-5.608452959604287,6.1389407584501265,-97.63804181368508,-11.284020906842539,-29.351728227535038
1.2833332999999998,-6.81038653,2.96949414,316.65,-147.52661526793077,943.2984256224238,0.2874001154163174,-1.6682474690849145,-0.011150700741961284,-14.43628309975268,-12.848743380049465,11.05185845012366,989.725392514427,-97.74969142621612,-69.37283568013194,-6.2775204451772515,-5.7073808408903535,6.5264082934872185,-97.55010591920858,-11.240052959604288,-29.13463648804617
1.2999999999999998,-6.69764071,3.07336726,316.65,-146.18558483099753,943.5677309150866,0.889215004122006,-1.5665709810387478,-0.09359109645506933,-14.408802967848311,-12.854239406430338,11.065598516075845,993.5506268755151,-83.99588540807926,-64.9430384171476,-5.741657873042049,-5.806309315746083,6.9138781533388265,-97.4621694971146,-11.196084748557297,-28.917543446001652
1.3166666999999999,-6.30905793,3.27262182,316.65,-144.84455439406432,943.8370362077494,1.491029892827695,-1.4648944929925811,-0.17603149216817737,-14.381322835943942,-12.859735432811211,11.07933858202803,997.3758612366033,-70.2420793899424,-60.51324115416327,-5.205795300906846,-5.905237790601813,7.3013480131904345,-97.37423307502061,-11.152116537510306,-28.700450403957134
1.3333332999999996,-5.74765147,3.32360715,330.6501212606532,-131.83445535663228,940.9470701824629,1.6625303151632969,-1.69841434536406,-0.236036892981762,-14.35,-12.892957301378482,11.135182920551394,984.3129858147914,-131.59409157467272,-144.25438288623215,6.008507092604271,-7.671251415660966,8.474786506892407,-97.02594517531315,-11.193323142481267,-28.271859778070127
1.3499999999999996,-5.35358517,3.30586463,331.6987610821941,-125.55214951667344,945.484820682949,1.9246902705485283,-2.136936452553902,0.2310844820682869,-14.35,-12.91679002459532,11.14471600983813,987.3349751186867,-122.1658662700911,-155.42716353028638,4.497512440656664,-5.521539781502067,8.593950122976604,-96.94491391637591,-11.236222044271576,-28.23849396556655
1.3666666999999997,-4.3997252,3.57893148,335.0512652423992,-123.35186277732123,946.0918556943304,2.233590106820043,-2.4092997206244853,0.6462651766639219,-14.36953314708299,-12.92633753492194,11.148779178307313,989.4580415612161,-111.54518894001663,-153.72128364831582,2.7883333114215607,-4.233555086277736,8.830915036976165,-96.89267506984389,-11.289299720624484,-28.217558356614624
1.3833333000000003,-4.18969108,3.58301277,341.2687150369763,-126.22777567789652,941.8108539194741,2.600611372226795,-2.475034872637635,0.9968526540673861,-14.413356581758423,-12.918120640920296,11.146040213640099,990.4632415940838,-99.44170407559548,-136.0001822514376,0.8327125390303616,-4.017176877567786,9.214370090386204,-96.87624128184059,-11.355034872637635,-28.212080427280195
1.4000000000000004,-2.88103908,4.18591757,347.4862021364011,-129.10370583401814,937.5298264585044,2.967634839769934,-2.540770419063272,1.3474422350041162,-14.457180279375514,-12.909903697617091,11.14330123253903,991.4684476581758,-87.33814658997508,-118.27897452752633,-1.1229199671323356,-3.800797370583397,9.597827444535753,-96.85980739523418,-11.420770419063272,-28.20660246507806
1.4166667000000004,-2.38738509,4.64902149,353.70368923582595,-131.97963599013974,933.2487989975348,3.3346583073130733,-2.6065059654889087,1.698031815940846,-14.501003976992605,-12.901686754313888,11.140562251437963,992.4736537222678,-75.2345891043547,-100.55776680361505,-3.0785524732950327,-3.5844178635990094,9.981284798685301,-96.84337350862778,-11.48650596548891,-28.201124502875924
1.4333332999999993,-1.52306642,5.28234279,334.3244099706756,-140.1572392961873,942.7021108504393,2.728097947214113,-3.6730639296187118,0.6651460410557779,-14.66537008797653,-12.865473313782992,11.122736656891496,989.7279683284459,-147.1463771260957,-58.77664340176158,0.10214369501447029,-4.377272140762418,13.59035366568896,-96.84863167155424,-11.741686803519048,-28.519371847507315
1.4499999999999993,-0.82384778,5.73920605,325.01975331682024,-134.60315801974855,945.4224787078823,2.802884530555453,-4.98673543483419,0.8508262359607581,-14.774028027552506,-12.815514573648674,11.115057174849852,984.9152566930205,-135.28363883139468,-73.12409656950805,7.540526958704847,-7.01106952597457,14.841995521020632,-96.90437107665161,-11.928284754504421,-28.4760863221472
1.4666666999999993,0.14632392,5.9744071,319.21067855255717,-127.14111340487968,946.7262373959148,2.950816755643839,-6.136554288213117,1.2296352240220068,-14.865781134413204,-12.766145910391197,11.109357651731866,980.6190247982071,-111.81709463768352,-95.34663954229856,14.511225133465759,-9.530816755643839,15.58725619955176,-96.96064234826812,-12.089635224022008,-28.400876318714346
1.4833333,1.23720675,6.15866755,322.6209498205273,-121.9513061057158,948.5816921997704,2.580333145054025,-5.914871472040523,1.3207377512162235,-14.920442650729733,-12.72970489951351,11.103284149918919,982.028077218811,-118.7864379680411,-108.17387537124426,13.955499717581038,-9.160333145054025,15.939519304702731,-96.96671585008107,-12.180737751216224,-28.598265127635152
1.5,2.25446364,6.27649025,326.0312415502068,-116.76146766758376,950.4371581363993,2.209847311553669,-5.693187325765719,1.4118408250277863,-14.975104495016671,-12.693263669988886,11.097210611664813,983.4371380937631,-125.75582311462566,-121.00118816391232,13.399770967330504,-8.789847311553668,16.291784523440775,-96.97278938833519,-12.271840825027788,-28.79565512089354
1.5166667,3.38288306,6.44502022,329.4415332798863,-111.57162922945173,952.292624073028,1.8393614780533127,-5.471503179490917,1.5029438988393493,-15.02976633930361,-12.65682244046426,11.09113707341071,984.8461989687153,-132.72520826121024,-133.82850095658037,12.84404221707997,-8.419361478053313,16.64404974217882,-96.97886292658929,-12.362943898839351,-28.993045114151926
1.533333299999999,4.59067901,7.20649596,304.4530770096696,-123.3013381009128,936.431442126872,-0.6339255727716315,-6.631962786385815,2.345228181697724,-15.174548073102889,-12.560301284598074,11.05412051383923,1001.7491117070573,-127.6793309495436,-123.08913819361776,8.918834723877929,-8.681885246987129,19.445810819758762,-96.99793974308038,-12.487638458482312,-29.227337173884237
1.549999999999999,5.60303602,7.58185839,321.0637798703016,-123.44895709336421,935.5544008172692,-1.3216585235852971,-6.962405614284433,3.1469787687660533,-15.25711823754108,-12.496305409967135,11.014203606644758,988.1467380296715,-150.76802522874496,-130.86468952651623,10.225074176068109,-9.046642089366594,20.41328417873319,-96.9955254508306,-12.562643688371676,-29.455829261792648
1.566666699999999,6.06196944,7.37515286,342.6306505581699,-122.00294036303346,936.6401471676882,-1.7756979064877885,-7.17461967368451,3.926742056794245,-15.331146397796921,-12.437082881762462,10.974721921174975,971.0363625892047,-177.03815169820106,-141.1052516952409,12.149806342719973,-9.406912469278353,21.133824938556707,-96.99059024014687,-12.631736637943794,-29.682848953243894
1.5833332999999996,6.13958284,6.98812805,346.64014101704737,-122.15430707078026,936.2489820830087,-2.59291909273717,-7.5056992880305735,4.541017916991238,-15.361266037428214,-12.403417453214733,10.967341745321473,977.3635022373592,-181.6712808746535,-155.31025759524601,12.946208246526194,-9.045945288863937,21.2997476403558,-97.01658254678526,-12.642658254678528,-29.803038913748434
1.5999999999999996,5.91680962,6.44536857,348.2645698291635,-122.52267196869508,935.6571827388177,-3.459482418159734,-7.852928495081426,5.132817261182257,-15.385421112701316,-12.373223609123354,10.964322360912336,986.8745631261435,-183.36515552817983,-170.05391166506615,13.589337125672555,-8.586998858674983,21.390329172629936,-97.04677639087664,-12.645677639087666,-29.90871736806826
1.6166666999999997,6.05462501,6.28439579,349.88899864127967,-122.8910368666099,935.0653833946267,-4.3260457435822985,-8.200157702132278,5.724616605373276,-15.40957618797442,-12.343029765031975,10.961302976503198,996.3856240149277,-185.05903018170616,-184.79756573488626,14.232466004818917,-8.128052428486031,21.480910704904073,-97.07697023496803,-12.648697023496803,-30.014395822388085
1.6333333000000003,6.32032903,6.01582572,329.09048963958236,-145.41210831345043,938.7363079241493,-6.5084812256687785,-8.35,6.485660869019231,-15.384306291598643,-12.205072020595248,10.965948951400227,985.528387228431,-234.73797212106152,-182.8850086022853,13.207179643350452,-6.294038364937783,20.437290845158824,-97.09594895140022,-12.644051048599774,-30.161132173803846
1.6500000000000004,6.51293591,5.73429181,328.7308388157899,-155.4005811403507,940.3459375,-7.114629934210507,-7.668626644736821,6.353972039473669,,,,968.8840652412279,-274.0685745614037,-169.045518092105,10.194986293859584,-3.5683497807017046,18.94084429824559,-97.1124451754386,-12.583996710526314,-30.282891995614037
1.6666667000000004,6.74970967,5.59323096,352.03132401315844,-146.8519935428848,938.6098229166666,-6.094281889619861,-6.556904148391789,5.5772891995613865,,,,958.3506214973195,-283.8557936159846,-155.65916091008742,6.727833485623706,-0.938796113547701,17.702212841130578,-97.13275060916179,-12.492622258771929,-30.36919008893762
1.6833332999999993,7.47974073,5.54110622,360.9462458270637,-141.46564133743937,937.7143769289988,-5.512501522203186,-6.034375879203564,5.118126272876801,,,,955.4131192392483,-278.0575650348189,-152.25249039437298,5.92312196871607,0.5943708401861221,16.52688013087453,-97.13437503936733,-12.413125328061032,-30.347500367428353
1.6999999999999993,8.44539323,5.69782182,361.8735668544633,-137.8350920320539,937.285709661616,-5.1742334744724925,-5.838996920600492,4.835264198481308,,,,956.6932888336775,-263.60535430591096,-154.38707841970805,6.5967419603177095,1.5187757637260348,15.386683521713314,-97.12562672778809,-12.340222731567348,-30.26584945935543
1.7166666999999993,8.95299857,5.85885149,362.800887881863,-134.20454272666845,936.8570423942331,-4.835965426741799,-5.6436179619974185,4.552402124085814,,,,957.9734584281065,-249.15314357700305,-156.52166644504314,7.27036195191935,2.4431806872659476,14.246486912552097,-97.11687841620883,-12.267320135073664,-30.184198551282503
1.7333333,9.76158119,5.96856618,360.1561493174061,-135.93688954390316,935.1052485262178,-4.655658780639156,-5.49,4.465396137139311,-15.15684176233323,-11.889604948805461,11.056579118833385,962.2875342072604,-236.98038636363637,-131.48551318647236,5.8464271641328045,2.799733012721069,13.653950511945391,-97.11276318647224,-12.118814846416383,-30.095131321749925
1.75,10.01159596,5.95618039,349.98813555930366,-142.57220405362915,932.4235430662359,-4.955507275378062,-5.297036962922731,4.448755896057863,-15.04692833252337,-11.784830908207313,11.112584545896343,969.0035902346989,-235.371771533118,-55.58009433692581,1.1264131957348242,1.1902855836025323,14.668132128869956,-97.11790257568394,-11.814979846202226,-29.977564392098568
1.7666667,10.40472521,5.65434204,346.9626775964095,-130.35602418455733,934.7486194219719,-5.1270293016208806,-4.858702895857752,3.605439267030673,-14.994518824504732,-11.727656899459706,11.141171550270146,964.5821335582173,-236.53430971098598,-42.08702827249078,2.0269038335096203,-0.2628871387324554,15.163640204682542,-97.11313807495497,-11.667280323604242,-29.85845187387439
1.783333299999999,10.60809079,5.51320958,347.5797403095515,-125.64711725393656,934.2885300931758,-5.180487340913945,-4.6173897100129695,3.036774964647543,-14.93575410185383,-11.6822853960444,11.1677146039556,960.0014413730316,-236.57372514189427,-35.1374676791349,3.48734190186528,-2.1137919725701932,15.36215799159292,-97.1177146039556,-11.527018635104517,-29.76126453325069
1.799999999999999,10.78370405,5.12037949,355.2249266799678,-135.42314104178308,928.4545555275753,-5.006146097669655,-4.75621699630009,2.9980324661488122,-14.864726187939489,-11.659685605253474,11.190314394746526,955.1134294791084,-234.44611626600562,-40.81324370919903,6.02820409507374,-4.732139162776115,14.987647172771851,-97.14031439474653,-11.401105514983639,-29.70637932704415
1.816666699999999,10.87579444,4.91287186,362.870113050384,-145.1991648296296,922.6205809619747,-4.831804854425364,-4.895044282587211,2.959289967650081,-14.793698274025148,-11.637085814462546,11.212914185537453,950.2254175851851,-232.31850739011693,-46.48901973926316,8.569066288282201,-7.350486352982038,14.61313635395078,-97.16291418553746,-11.275192394862762,-29.651494120837615
1.8333332999999996,10.65202085,4.12265155,363.4673950535866,-147.07887287716454,922.24836444078,-4.820681615828514,-4.959772794723829,2.697576147293233,-14.679659192085744,-11.584242484198958,11.259052981588345,944.0202693597143,-239.4951746633683,-57.60074613904859,7.995913272877384,-9.60265105798294,14.888711184391267,-97.20011360263808,-11.074962297334443,-29.484848694696357
1.8499999999999996,10.5248096,3.93492121,346.89939774361227,-132.24749142793888,934.412502488663,-5.231578365225087,-4.999661541864817,1.9285991593850191,-14.457367547837631,-11.450876562327178,11.366316226081185,935.12876009291,-268.9062388010177,-84.88059838513396,0.32726191792931514,-10.874934741732071,16.611739298750162,-97.27140360579581,-10.67420805220662,-29.031753124654355
1.8666666999999997,10.30621879,3.29785144,356.3517264959627,-160.59986904103476,922.1489009235706,-5.176274637761311,-6.179474394425374,2.1820745769273264,-14.374411956641966,-11.390964190908086,11.407794021679017,934.0042509678133,-261.5923208439333,-108.39389984514943,6.87614497843147,-13.008736893042766,15.178451028647299,-97.28062089370646,-10.43916721048557,-28.91192838181617
1.8833333000000003,10.0017852,2.75176025,365.80399853445437,-188.95207654020624,909.88537293994,-5.120971242119234,-7.359280168123016,2.4355484736201793,-14.29145686317885,-11.331052178962503,11.449271568410573,932.8797485897578,-254.27844677026866,-131.90706022563916,13.424988745714087,-15.142526241566237,13.745171358256805,-97.28983812631347,-10.204127779006742,-28.792104357925005
1.9000000000000004,10.04385532,2.55625754,363.21732104121475,-175.44412356082066,916.2579872351077,-4.87068788586684,-7.192162105790085,2.3341277323544114,-14.228525780076755,-11.312923827799098,11.467076172200901,938.9459477724013,-274.2452394460208,-123.56675412981794,11.559164024695438,-15.220982813282163,14.218624228266322,-97.26267812447855,-10.012162105790084,-28.64314491907225
1.9166667000000004,10.17769885,2.16970865,360.4154354663774,-161.18787946354047,922.9637406766229,-4.616919093108621,-7.000966440013345,2.226362902552976,-14.165952653095276,-11.295542403637576,11.484457596362423,945.1406873435676,-294.6996993992997,-114.65703610462185,9.542918821958907,-15.262698231269816,14.726161813782758,-97.23486784582012,-9.820966440013345,-28.49366467128316
1.9333332999999993,10.59090998,2.21462348,359.0208065194528,-152.1432502628796,928.012696109359,-4.2509384858044745,-6.680824921135709,1.9454274447950306,-14.090615667718199,-11.274100420609887,11.506742376445844,949.6922418506839,-313.5656303890639,-108.82986172449962,7.9254153522607,-15.444118296529908,15.020711356466943,-97.20157202944269,-9.596060988433251,-28.338087276551008
1.9499999999999993,11.14196624,2.16884383,369.5201424338013,-187.1463473855259,919.0587859669251,-2.9365299684543076,-5.270823057069165,0.20084886722117146,-13.907395086511814,-11.218337635025335,11.57047127425676,940.3559583213846,-319.00648503967096,-129.0558206672395,9.677960042060922,-16.806323487238263,13.515116145684024,-97.12191090717904,-9.086229805945912,-28.130968358665527
1.9666666999999993,11.65684697,2.34602095,368.04778628224204,-187.86066323614992,919.7799085655181,-2.6410364212295603,-4.836415618333451,-0.5749771413795111,-13.841514163811496,-11.175179481543735,11.596493929795074,937.6624775227876,-318.83586218889394,-134.3176764755316,6.654042653048172,-16.764423711940022,13.055419665136734,-97.08800809360656,-8.905538444631203,-27.990040468032845
1.9833333,12.07772152,2.53032643,364.4707540241774,-182.5468309780852,922.2019472751956,-2.5246751309069757,-4.573525295752796,-1.1804868187988875,-13.796262550908269,-11.134237546059863,11.61588747818217,936.136851716336,-317.67871380179713,-136.94873454004784,2.790416846596422,-16.475675324843237,12.779600310298015,-97.06215002909043,-8.782712638179584,-27.860750145452197
2.0,12.38483537,2.59324044,360.8937003038335,-177.2329668368996,924.6240005171634,-2.4083131424138604,-4.310633395823906,-1.7860001292908387,-13.75101066649428,-11.093295364923396,11.635281142931023,934.6112167560929,-316.52155847178227,-139.5798083909755,-1.0732321417027535,-16.18692520524921,12.503779300536557,-97.0362918094253,-8.659886094770185,-27.731459047126513
2.0166667,12.58934441,2.89533704,357.31664658348956,-171.91910269571403,927.0460537591312,-2.291951153920745,-4.047741495895016,-2.39151343978279,-13.70575878208029,-11.052353183786929,11.654674807679875,933.0855817958497,-315.3644031417674,-142.21088224190316,-4.936881130001931,-15.898175085655183,12.2279582907751,-97.01043358976015,-8.537059551360786,-27.60216794880083
2.033333299999999,12.60772412,2.9864583,368.5648785809414,-168.86136375749464,913.743757661564,-1.8447796469021827,-3.7701205862758393,-2.619598767488424,-13.605943870752853,-10.961767155229866,11.699116422385067,926.7671562291822,-319.4289082278465,-165.61486775482308,-0.6002519986699939,-16.63084193870721,10.344540639574168,-96.97253014656896,-8.11389606928725,-27.668875249833388
2.049999999999999,12.41749609,3.28729015,373.49149460132935,-168.24528405315627,914.3136075581386,-0.7256424418605345,-1.4973662790699458,-3.58659676079725,-13.489440199335554,-10.790640365448516,11.778799833887039,921.3771648671097,-319.26621054817304,-178.04056810631252,-0.4273455149497538,-16.31452284053164,8.320922342192757,-96.86004028239203,-7.509561046511657,-27.419561046511657
2.066666699999999,11.93000809,3.58157287,369.9991572757111,-169.57801027664857,921.888180564239,0.024093831405623656,0.15137657601332233,-4.433052425237046,-13.427699307075128,-10.688577927998335,11.82702896738564,923.1942132176716,-319.9747015734078,-174.44233199176853,-4.352118708971498,-15.781331080024978,7.836648301552553,-96.78472827446078,-7.206947574762954,-27.13891309784308
2.0833332999999996,11.59408731,3.96210153,370.3182661378556,-175.3545319240386,920.7224563535481,0.3801064395123386,0.377140668959044,-4.539422045951857,-13.397307986870898,-10.66035741638012,11.844395436073773,930.6661363707407,-328.1890412628944,-170.51968087683662,-5.172684354485756,-16.204638754298205,8.075437246014374,-96.77170342294468,-7.100577954048143,-27.086813691778683
2.0999999999999996,11.27378049,4.19683842,370.6373769146608,-181.13108823069697,919.5567251484839,0.7361211837032335,0.6029061164947336,-4.645792304886942,-13.366916484318017,-10.632136735438158,11.861762008961133,938.1381043555276,-336.40343023861607,-166.597006225904,-5.99325492341355,-16.627948968427624,8.314227623215583,-96.75867849327915,-6.994207695113058,-27.034713973116602
2.1166666999999997,11.00908973,3.98676518,370.95648769146607,-186.90764453735534,918.3909939434199,1.0921359278941285,0.828671564030423,-4.752162563822026,-13.336524981765136,-10.603916054496198,11.879128581848494,945.6100723403146,-344.6178192143377,-162.6743315749714,-6.813825492341345,-17.051259182557043,8.553018000416793,-96.74565356361363,-6.887837436177974,-26.982614254454518
2.1333333000000003,10.4120388,3.93801527,371.2755965536105,-192.68416618474538,917.225269732729,1.4481485360008435,1.0544356569761448,-4.858532184536838,-13.306133661560905,-10.575695542877982,11.896495050536627,953.0819954933836,-352.83215890382434,-158.7516804600395,-7.634391137855603,-17.474566856830272,8.791806944878614,-96.73262871209754,-6.781467815463162,-26.93051484839012
2.1500000000000004,9.82826109,3.66917084,370.4214631725232,-183.14639269406453,930.1861080007943,2.271004169148329,-3.512414135398097,-5.644674210839834,-10.890026603136722,-12.361712130236306,-8.763166964463565,980.445374230694,-354.3853647012115,-140.89980702799232,-7.669188405797122,-24.524422473694756,5.286543180464483,-96.81970379193965,-6.153258288663881,-26.466960889418292
2.1666667000000004,9.26687708,3.42858317,365.93009560775477,-204.6199784007722,937.9133781272625,3.2904635186228037,-5.625542394015017,-7.6911786260156365,-8.047469592148618,-13.554630761805091,-28.55951222749562,1021.3973083018258,-363.24800836618067,-119.98296613305425,-9.16370903386702,-27.99312742337704,2.7511786260156366,-96.85094598181965,-5.921660204327889,-25.980096492639365
2.1833332999999993,8.74453426,3.27766851,364.7301433110772,-201.618980385059,937.5848995656021,3.5496710910894684,-8.050027015793738,-9.025203805003558,-6.15033830745725,-10.359227066741894,-21.82681898747785,1010.5396393827265,-333.78772702652105,-111.0358357868773,-12.39486549754631,-28.006534711608076,4.085203805003559,-96.89787149062826,-5.885907435711797,-25.93764007990776
2.1999999999999993,8.28216645,3.24834243,363.53018381465694,-198.61796436328547,937.2564190330626,3.8088802188078077,-10.474526184538547,-10.359236988174665,-4.253195639932511,-7.163804199179612,-15.09408535113858,999.6819053173523,-304.32726892446436,-102.0886517577029,-15.626041348242154,-28.019942080283162,5.419236988174665,-96.94479728099107,-5.850154452578233,-25.89518341243665
2.2166666999999993,7.95182838,3.49953649,362.3302243182367,-195.61694834151194,936.9279385005229,4.068089346526146,-12.899025353283355,-11.693270171345771,-2.356052972407772,-3.96838133161733,-8.361351714799309,988.8241712519781,-274.8668108224076,-93.14146772852853,-18.857217198938002,-28.033349448958248,6.753270171345772,-96.99172307135387,-5.814401469444669,-25.852726744965544
2.2333333,7.66214215,3.54288111,361.130272021559,-192.6159503257984,936.5994599388625,4.327296918992839,-15.323509975062333,-13.027295350333835,-0.45892168771620234,-0.7729776365537919,-1.6286584747808206,977.9665023328776,-245.4065294827449,-84.19433738235062,-22.088373662617634,-28.046756737189284,8.087295350333836,-97.03864858016249,-5.778648700828573,-25.810270332233934
2.25,7.65727959,3.59980902,365.60546745095405,-162.51462587493015,951.0651513259506,-6.494400775524951,-43.31799382208931,-22.968638230751523,-12.951500772238836,-9.97699845552233,12.36300154447767,1049.6514485228881,-349.8301189576418,-283.72003220400217,6.06889421971014,-32.00171272715326,11.28950346685947,-97.36517104268673,-5.643833590746278,-25.59832046268608
2.2666667,8.02702353,4.07428937,481.93444382373167,-165.1928212349249,940.1004333081398,-7.929343892740945,-43.186548651046635,-25.909723932831636,-12.967931418619171,-9.944137162761658,12.395862837238342,995.3645928822585,-366.54556320857006,-351.78124639347993,10.910458019782428,-25.889512273668338,7.817160198481832,-97.45827803884197,-5.649310472873057,-25.324476356347148
2.283333299999999,8.43764722,4.21275185,490.6709127989552,-158.1539860393121,939.375875575186,-4.098193248310271,-47.78802613190896,-25.713091774129456,-12.982414048741692,-9.937930991876385,12.408276032494461,993.3280298386635,-346.22195194001205,-337.61987675396426,7.396466809635054,-24.741371513378432,8.325536712492111,-97.51344917059592,-5.6603450406180755,-25.279654959381922
2.299999999999999,9.00757973,4.53943831,483.91068795091786,-149.71554010680052,940.12622266091,0.4914692097934914,-53.07122706356837,-25.064526785207107,-12.996616201783786,-9.935563966369369,12.417744134522524,998.8171619894333,-320.5633954439601,-311.615734533888,2.6789849741524367,-24.30820584559453,9.407267369198362,-97.56315670624325,-5.672180168153155,-25.267819831846843
2.316666699999999,9.44850456,5.01642001,477.15046310288056,-141.27709417428895,940.876569746634,5.081131667897253,-58.35442799522778,-24.415961796284762,-13.010818354825881,-9.933196940862352,12.427212236550588,1004.306294140203,-294.9048389479081,-285.6115923138117,-2.0384968613301826,-23.875040177810625,10.488998025904612,-97.61286424189059,-5.684015295688234,-25.255984704311764
2.3333332999999996,9.84650188,5.94556773,470.390278816111,-132.83869887235142,941.6269123302845,9.67076658808151,-63.63759722774519,-23.76740069874454,-13.025020422655228,-9.930829929557461,12.436680281770153,1009.795393356246,-269.2464364028863,-259.6076061182757,-6.755950391978569,-23.441877109015515,11.570722192239941,-97.6625714792933,-5.695850352212691,-25.244149647787307
2.3499999999999996,9.96914348,6.20711251,366.17902384866113,-203.2273253164922,1059.7798768636248,12.327588891772647,-61.54989762666946,-11.648073651123354,-13.153293825878825,-9.898353087060588,12.437088271765147,955.6858768059526,-295.42490901750466,-240.1554892291723,5.083849237246492,-35.16948524958911,9.239736424719558,-97.88532283646221,-5.892411108227353,-24.794295065893824
2.3666666999999997,10.32728881,6.66384752,335.9043336217094,-202.99181812152148,1161.278671626725,12.241076044640542,-40.15719303861384,-5.818069008276474,-13.19174398015976,-9.87912800992012,12.43228200248003,929.2850396228051,-284.1590138131905,-229.94697326758387,9.447941748132697,-33.23736499697209,9.090742076880932,-97.97664195287942,-5.978923955359458,-24.66933206448078
2.3833333000000003,11.06067789,7.43995887,271.5826144464424,-191.81953706870638,1192.2549140414035,13.784943459346003,-24.06729531953169,-2.786061611161104,-13.224444389438945,-9.86080811581158,12.43,930.1819690519058,-262.3630929342927,-211.98712064206362,10.687477917791742,-29.252536933693236,6.586776942694161,-98.05020190519052,-6.054141284128414,-24.59161623162316
2.4000000000000004,11.46094687,7.9724854,176.48041404140193,-170.7598889888984,1159.476570657065,16.80275127512758,-12.771143114311172,-2.283510351035092,-13.251947194719474,-9.843306330633062,12.43,955.7570777077714,-231.04739873987327,-187.01957395739515,9.102316231623126,-23.41194119411928,1.953804380437938,-98.10770777077708,-6.119147914791481,-24.556612661266126
2.4166667000000004,11.97722308,8.22362775,81.37821363636147,-149.70024090909044,1126.6982272727264,19.820559090909157,-1.474990909090657,-1.7809590909090796,-13.27945,-9.825804545454545,12.43,981.3321863636369,-199.73170454545385,-162.05202727272672,7.51715454545451,-17.571345454545323,-2.6791681818182855,-98.16521363636363,-6.184154545454547,-24.521609090909088
2.4333332999999993,12.47996219,8.59845926,-13.723416156611108,-128.6407191869197,1093.9200805580572,22.838348799879842,9.821093519351393,-1.2784108460846326,-13.306952640264026,-9.80830286528653,12.43,1006.9071415691557,-168.41619824482598,-137.0846303930405,5.932002370237099,-11.73078475847613,-7.3121129462944054,-98.22271915691569,-6.249160786078605,-24.486605730573057
2.4499999999999993,12.63132825,9.0364276,7.971839613524553,-99.98660676328298,972.2008521739141,10.25149371980687,27.265988405797017,-6.051296618357524,-13.429364251207726,-9.694156521739133,12.42119806763285,943.1952405797105,-114.2785951690816,-110.9070241545897,-4.859918840579344,10.512633816424804,-19.896550724637596,-98.52464541062801,-6.664571980676322,-24.67176038647343
2.4666666999999993,12.59517195,9.1686406,49.87208444444257,-142.44815936507746,951.8695485714295,8.033867936508035,29.03272761904754,-5.29675174603178,-13.479973968253965,-9.652748571428573,12.398193650793653,935.1068876190479,-125.1734869841265,-104.05170793650824,-12.465179047618706,17.105699682539388,-21.69089523809516,-98.58905777777778,-6.8071993650793585,-24.67636126984127
2.4833333,12.37660828,9.26200376,87.69574543828533,-176.4171522663445,939.2076577184366,5.833243783045967,30.65966659867894,-4.20293586143058,-13.527108728054348,-9.614531747650501,12.375625398120402,932.3945084330921,-135.3254852597392,-97.54892651050413,-17.895990649073553,22.42663092081522,-23.25983011437626,-98.6454682523495,-6.939138883223245,-24.660861116776754
2.5,11.6012991,9.65884837,110.10297393978367,-178.26851389302917,955.5508924172772,3.696856143213531,31.757931970441025,-1.8259758068312117,-13.561102656227936,-9.588382572132355,12.354706057705886,950.0138228972182,-142.66817374523427,-92.37923451056689,-15.103258703735682,22.936539843419048,-23.97631752357343,-98.67161742786764,-7.030660997536752,-24.56933900246325
2.5166667,10.95589379,10.00855849,132.510202441282,-180.11987551971382,971.8941271161177,1.5604685033810952,32.85619734220311,0.5509842477681568,-13.595096584401524,-9.56223339661421,12.33378671729137,967.6331373613442,-150.01086223072934,-87.20954251062965,-12.31052675839781,23.446448766022872,-24.6928049327706,-98.69776660338579,-7.1221831118502585,-24.47781688814974
2.533333299999999,10.74928512,10.08006381,154.91729649967664,-181.97122603825082,988.237263755745,-0.5759063181509889,33.95445612438607,2.9279300406355535,-13.62909030861195,-9.536084377990807,12.312867502392647,985.2523461097936,-157.35350666018113,-82.03988152878273,-9.517811569418292,23.956354629179245,-25.409288043051863,-98.72391562200919,-7.2137046770321716,-24.386295322967825
2.549999999999999,9.8600452,10.43507441,238.137992775008,-97.15750330721009,935.0757316576778,3.0526696855599456,37.47577236186044,4.610527119161338,-13.827384247481422,-9.415826294901805,12.247752620331742,924.9701709575634,-146.95096875953794,-101.42177419354829,-11.440449781215573,28.050679251042983,-31.30275770835457,-98.8986684644347,-7.810226417014329,-24.58444744072452
2.566666699999999,9.49460763,10.66729192,232.96091922763847,-161.44055986058413,935.2834930039686,6.389571308639251,33.9862297496695,6.730540856822904,-13.924904879413853,-9.360705937722605,12.21807242800448,959.4415943319405,-175.62203454767297,-102.76586290322571,-3.918641039992334,28.852044443879056,-30.810914521217086,-99.01314920626844,-8.077348147959686,-24.77524867711406
2.5833332999999996,9.1316157,11.11668182,227.7838767426479,-225.72323071639255,935.4912531036939,9.726452910348982,30.496708074692233,8.850541874427563,-14.02242492622367,-9.305585911264883,12.188392413758013,993.9128108781921,-204.29292830975837,-104.10994354838706,3.6031225704689938,29.653404828533617,-30.319074285132807,-99.12762926121908,-8.344468276177873,-24.96604876869848
2.5999999999999996,8.90335275,11.66872828,222.36427916358085,-237.59910181056094,955.7844539165783,9.935366130379302,29.395095728084968,12.850036242731687,-14.093324561541733,-9.282465293644915,12.161163234112289,1003.8446003056995,-216.77012968594877,-117.22930476985839,7.361263925875702,29.409080852807243,-31.536247143915134,-99.20332456154173,-8.542438978270116,-25.06144088495296
2.6166666999999997,8.73717541,11.95352221,216.84906982241068,-228.81416121712562,983.9960628417449,8.91111296701913,29.234892028174787,17.590489985975566,-14.153729235278359,-9.271960132995067,12.13490033248767,1004.1019767416208,-222.86312286286056,-134.99090513858877,9.635631206567778,28.75250831219175,-33.42717606088776,-99.26372923527836,-8.713147838830144,-25.119219268527125
2.6333333000000003,8.32045361,12.65990655,211.33389357243018,-220.0292733332281,1012.2075024975975,7.886865949165609,29.074689289484876,22.33091528655404,-14.21413354658767,-9.261455035376057,12.108637588440144,1004.3593516332866,-228.95607948188663,-152.75239893793074,11.909984841083546,28.095939711003595,-35.31809363230965,-99.32413354658767,-8.883855675139065,-25.176997305431684
2.6500000000000004,7.87569849,13.25007544,205.81868423126002,-211.24433273979278,1040.4191114227642,6.862612785805436,28.914485589574696,27.071369029797918,-14.274538220324294,-9.25094987472621,12.082374686815523,1004.6167280692079,-235.04907265879842,-170.5139993066611,14.18435212177562,27.4393671703881,-37.209022549282274,-99.3845382203243,-9.054564535699095,-25.234775689005847
2.6666667000000004,7.33002006,13.89358911,300.1227800241083,-136.71991831032244,955.6231618178833,0.14265176419021713,26.529682856673304,18.931511971290828,-14.647755588428668,-9.3323266765286,11.949714058733289,979.3381283420998,-210.08660502958628,-179.65144162283593,10.28697208525088,42.929067855577514,-39.22751276572432,-99.73338817663819,-10.08375638286216,-25.564939294323914
2.6833332999999993,6.65107866,14.23984787,358.8649659763282,-148.19806656804673,972.4568661242595,-0.22260355029583861,29.17321819526613,19.42917233727808,-14.78472633136094,-9.373417899408283,11.885794378698227,992.4918853550289,-231.04312869822374,-183.32682322485186,8.173056952662835,44.796435650887474,-39.94889201183428,-99.85209615384615,-10.44444600591714,-25.711041420118335
2.6999999999999993,5.98319174,14.89449273,398.18545755602025,-151.2231488811444,974.7335726112946,0.576866415403699,31.273087694952046,19.69740936401053,-14.888597448472707,-9.422920852191188,11.833349786321419,987.1994855944373,-240.26501789853808,-185.76784003280076,8.561586425496241,45.78828426347908,-40.279191490703795,-99.92978553293489,-10.718548089508449,-25.807623831075645
2.7166666999999993,5.2066288,15.18154755,424.36573584280706,-148.52916381499074,967.1615033668179,2.164346395849359,33.00512297163034,19.810425322883315,-14.970074069985646,-9.478114692570921,11.788669058394968,969.4270689921633,-241.54761761783854,-187.37371796003967,10.64318269124618,46.187782536703814,-40.34489844353681,-99.97972281708797,-10.934066894800742,-25.87070250579534
2.7333333,4.30497375,15.64519898,450.54585704823927,-145.83519491271508,959.5894795546656,3.751816851434244,34.73714785611782,19.923440603661707,-15.051550202639838,-9.533308201788277,11.743988598552347,951.6547590241748,-242.83020964155614,-188.97958625203032,12.72476646744358,46.58727841294372,-40.410605002128904,-100.02965980161797,-11.149584406982795,-25.933780802043746
2.75,3.75948159,15.78343385,476.726135335026,-143.14120984656142,952.0174103101888,5.339296831879905,36.46918313279612,20.036456562534497,-15.133026824152777,-9.58850204216801,11.699307870625896,933.8823424219007,-244.1128093608566,-190.58546417926922,14.806362733193517,46.986776686168454,-40.47631195496192,-100.07959708577106,-11.365103212275086,-25.99685947676344
2.7666667,2.11660559,15.82022969,462.22529108983565,-127.88253037328622,887.7658403442638,4.226062514594529,23.165524602195035,30.6799470260533,-15.434925809787503,-9.902758348066852,11.516995229676084,976.7769662407845,-216.27599609700778,-172.65183090369285,33.65186543016311,41.62030466691132,-37.031380491710316,-100.14458134569837,-12.21935877506088,-26.388423424625547
2.783333299999999,1.03238982,16.13060191,432.49706271474986,-120.148854355006,918.1668040164107,2.7693960036028535,20.013120358942054,32.27004863728848,-15.562801114187536,-10.019514060779924,11.450277679554329,989.125272809153,-201.06995446509086,-169.12136054308326,36.43176335190295,37.722887780632064,-36.52543906995366,-100.11678236648096,-12.575185709043577,-26.4829399539647
2.799999999999999,-0.05536727,16.1023225,405.09927264462004,-106.57832204958483,938.9285253194353,1.550061208254233,18.907837416589434,31.08527576185636,-15.661447242381437,-10.111447242381436,11.397131654571139,1000.9262836685981,-183.0419401555384,-167.4618393323916,36.50145682139227,35.65739304791124,-36.036626077638715,-100.08498693033299,-12.84361810595359,-26.54
2.816666699999999,-1.22061874,15.92006905,381.2518180475068,-84.1163090448603,945.0060679297968,0.6922780348416715,20.921057230529325,25.673394541587832,-15.715566054584121,-10.16556605458412,11.364660367249527,1011.8934609614722,-160.7152241813206,-168.6524532008507,32.44254590619087,36.38258513142723,-35.57391023330576,-100.0471037617911,-12.978915136460303,-26.54
2.8333332999999996,-2.1114369,15.77052262,357.40450653483407,-61.65443081194345,951.0835740749759,-0.16549999188217446,22.934264965174567,20.261545792541487,-15.769684542074586,-10.219684542074585,11.33218927475525,1022.8605724514147,-138.3886421671299,-169.84305992564086,28.383659344406112,37.10777286379944,-35.1111971652623,-100.00922082054778,-13.114211355186463,-26.54
2.8499999999999996,-2.3904942,15.88029208,333.5570519377208,-39.192417807218916,957.1611166853374,-1.023283165294736,24.94748477911446,14.84966457227296,-15.82380335427727,-10.27380335427727,11.299717987433636,1033.8277497442887,-116.06192619291208,-171.03367379409994,24.324748429204718,37.83296494731542,-34.648481320929335,-99.9713376520059,-13.249508385693176,-26.54
2.8666666999999997,-3.33857635,15.38320394,307.9982698517852,1.9945912064239195,807.6510471971583,-14.131695205762455,6.915525461622085,-9.059809969362274,-16.014063591951636,-10.473733791504506,11.212638403577051,982.8118295106425,-116.226501283431,-148.01712768071644,-15.62881940879187,52.971117910076345,-34.39395760536558,-99.88263840357705,-13.783180177196302,-26.54
2.8833333000000003,-3.53634144,15.4598873,417.35518896364727,-14.605763679940265,897.2220429095337,-14.598185671796946,16.332889607577208,-11.652068666801455,-16.11395223932315,-10.564557015390836,11.177116716236897,929.234594640639,-140.31447356414816,-129.44423632005973,-19.500803297623563,51.417748346856825,-31.181531027114378,-99.90348805983079,-14.048973434206351,-26.5728832837631
2.9000000000000004,-4.40007092,14.99095651,530.0338430885657,-32.81684415696974,994.2740114348446,-14.62706159221507,26.631967890041025,-13.52900349397944,-16.21020530738356,-10.651184776645206,11.143428142415754,876.2424680199805,-164.75312754468615,-111.23315584303026,-22.114074095463682,49.30499350293084,-27.89448875285139,-99.9275513268459,-14.304044064566437,-26.606571857584246
2.9166667000000004,-5.03572236,14.8082102,562.0356368268789,-50.701153691087754,945.5470097246832,-15.311820027998154,23.25096416238904,-12.800660699953308,-16.256326476901542,-10.707503854409708,11.137205655622958,885.5175136350915,-175.08372466635583,-126.97878088660809,-18.512627382174404,46.158732748483345,-25.567632459169328,-100.00265295380309,-14.489277629491372,-26.649120821278583
2.9333332999999993,-5.22316716,14.75755406,584.897576798879,-68.54833692953719,880.3053979281412,-16.070877498833376,18.32020149323402,-11.777177470835326,-16.296768063462434,-10.76038900606626,11.134094764349044,901.8465819318704,-183.81599647223476,-146.57117412972377,-14.207153859076266,42.89540780214668,-23.349566980868047,-100.08353612692487,-14.666598432104518,-26.69267329911339
2.9499999999999993,-6.01457036,14.38722098,607.7596539430692,-86.39562725151563,815.063394680358,-16.82993952403169,13.389409239384301,-10.753688100793333,-16.337209892673823,-10.813274475034994,11.130983854409706,918.1757482034523,-192.54832067195474,-166.16368492767046,-9.901654503033358,39.63206327578179,-21.131488194120507,-100.16441978534763,-14.843920298646747,-26.736226038264114
2.9666666999999993,-6.46623733,13.79521894,714.5292708654556,-62.52266960705876,765.2571204737542,-8.58526130405333,11.485549133304568,-10.985339152427331,-16.504651409536724,-10.970592190487931,11.122970390475603,901.2037596076752,-198.57173881932002,-207.37448504101934,-3.1342302757390303,29.426359570662463,-12.45842279933428,-100.45009555240267,-15.335835790512588,-26.81326648571957
2.9833333,-6.62100725,13.07882782,773.7253083106851,-38.62759127449579,683.9785229294807,-7.441120297525386,16.117136804462874,-10.267284994993565,-16.664932456014878,-11.08763756258046,11.106438220569302,876.2030969818338,-246.79916704334136,-225.56383530253183,1.6284151909598021,20.403304706050644,-5.119789071663572,-100.69900823916464,-15.7166458017451,-26.917980231726506
3.0,-6.14075072,12.58824928,797.8230058646832,-22.56404892004006,587.0107993134029,-10.874112430267484,22.835311686454006,-8.927464454298384,-16.798437705621513,-11.168694321270204,11.08736604205407,854.1985710198828,-312.68400772421677,-230.3366479759691,5.113855814618793,13.165412959519387,0.46359118867114546,-100.8944980689458,-15.993192390215993,-27.0276452581891
3.0166667,-5.55939456,11.1707276,893.0485637579887,14.26861261422695,486.1643318401717,-15.32823651675328,20.821146329809455,-11.64006713253301,-16.898878695574272,-11.228512572418323,11.075926775368812,835.3580826614108,-327.590531266798,-242.17365663262262,11.539311115092893,5.2397735770172424,7.4630640864839215,-101.06368416651735,-16.2140502896733,-27.124988532521055
3.033333299999999,-4.60205964,10.49834791,1033.0302186187173,64.16986436122244,382.877799199672,-20.4248734396461,13.312233988333906,-16.902610205259577,-16.97851364749447,-11.274966294371774,11.069290529375461,818.508654084295,-310.4192447590048,-258.4556861773069,19.81470986880037,-3.1185782516071097,15.353560572577098,-101.21631782436441,-16.399865177487097,-27.21457785343128
3.049999999999999,-3.67532652,9.66448702,1173.0127133727447,114.07141551692955,279.5906468374903,-25.521540942483128,5.803276593203567,-22.16518485337125,-17.0581490772263,-11.321420295048673,11.062654243564475,801.6591244102023,-293.2478552230793,-274.7378134145604,28.090158275099558,-11.476980230543619,23.244104401839117,-101.36895239801707,-16.585681180194698,-27.304167711879586
3.066666699999999,-2.5978854,9.40311954,991.4907420343611,149.95458142458494,522.2192551761793,-52.98117982162954,-51.991090048318995,-27.385764389266186,-17.16858169960318,-11.363574509880955,11.075716339920637,860.724315247705,-358.32154598671355,-335.44779821631494,11.8292277138274,-30.752439594545248,41.373742859386425,-101.76004313833337,-16.92324869367066,-27.308567320158726
3.0833332999999996,-1.55563535,7.90166951,628.2781327890781,166.88940771468992,950.1866097855104,-89.57991353886757,-133.62764908903972,-31.913212480226658,-17.29255220743592,-11.400402980121461,11.101343267071538,959.6058701644939,-476.23569308288563,-417.8683595283139,-17.880081140278293,-55.03418323211552,64.35270342592291,-102.27792527572207,-17.335238741578998,-27.25892538634277
3.0999999999999996,-0.57113208,7.21666056,679.9970974236427,61.60779654642471,802.5924990320727,-52.79477228730502,-92.14480635847849,-27.976951625571182,-17.327582163519505,-11.405934025818869,11.119780086062898,921.2554429805649,-568.9599868361352,-399.7283733227142,-10.606756048186561,-50.424978484275385,62.19375192203459,-102.38670250777109,-17.407142335645304,-27.244175931149684
3.1166666999999997,0.28438091,6.64430886,731.7160620582073,-43.673814621840506,654.9983882786352,-16.009631035742473,-50.66196362791729,-24.04069077091571,-17.362612119603092,-11.411465071516277,11.138216905054259,882.9050157966359,-661.6842805893847,-381.58838711711456,-3.33343095609483,-45.815773736435254,60.034800418146276,-102.49547973982013,-17.47904592971161,-27.229426475956593
3.1333333000000003,1.10706348,5.62699728,783.4347163796066,-148.9547941017059,507.4051630880855,20.77528950541533,-9.179369793913153,-20.104453533777985,-17.397641865507364,-11.416996084027478,11.156653613424927,844.5548187148083,-754.4080179979878,-363.44850975121386,3.9398504961338965,-41.20659664376812,57.87586186794099,-102.60425631920707,-17.550949092357214,-27.21467710926006
3.1500000000000004,1.82858711,5.23391225,835.1536810141712,-254.2364052699711,359.8110523346478,57.56043075697788,32.30347293664806,-16.16819267912251,-17.432671821590947,-11.422527129724886,11.175090432416287,806.2043915308793,-847.1323117512374,-345.3085235456142,11.213175588225628,-36.59739189592799,55.71691036405267,-102.7130335512561,-17.62285268642352,-27.19992765406697
3.1666667000000004,2.37476012,4.72587977,886.8726456487357,-359.5180164382363,212.2169415812101,94.34557200854043,73.78631566720927,-12.231931824467033,-17.46770177767453,-11.428058175422294,11.193527251407648,767.8539643469502,-939.8566055044869,-327.1685373400146,18.48650068031736,-31.98818714808786,53.55795886016435,-102.82181078330512,-17.694756280489827,-27.18517819887388
3.1833332999999993,2.71803314,4.32763193,287.7386347132951,15.496290558038766,1071.5669385265471,-50.204719335314465,-20.643507155891214,11.845464220534627,-17.679244260877915,-11.36132254346365,11.4373549130727,1103.5188705215546,-182.82273057340984,-14.768085390480678,-66.29859014503265,-9.850001344732858,50.878972721158696,-104.12715243492454,-18.275276630486964,-26.71717952165982
3.1999999999999993,2.88343763,4.05334603,314.9381107986913,-25.64527699672974,1066.178697469413,-43.06304126453421,-22.5048841097347,9.484920586670864,-17.686258074321756,-11.337053727486891,11.467118322060944,1063.912214453988,-236.34009803176266,-5.174919066798585,-52.07702940953045,-14.226007295386935,48.307909415609245,-104.29645185804392,-18.327978569800134,-26.65159130633027
3.2166666999999993,3.25622055,5.00065306,344.82899308457934,-72.59464937811649,1058.2943439851056,-34.99081429693281,-24.047979798363524,6.8082511842339954,-17.692590888365377,-11.31383340932695,11.494560516249967,1021.8581073283199,-285.76348976619045,-1.516663487600563,-36.348430263192036,-18.93762094384048,45.36103994731124,-104.45477220913442,-18.37653014413456,-26.592485041923148
3.2333333,3.92739009,6.01310388,374.7196960255335,-119.54374006383404,1050.4100378068242,-26.918635762596043,-25.59106622843679,4.131597841781323,-17.698923664412188,-11.290613230488638,11.522002545786153,979.8042525267883,-335.18658496086266,2.1415701421080175,-20.619925488259184,-23.64920632266884,42.41418816019458,-104.61309161030474,-18.42508142716012,-26.5333791321529
3.25,4.51029766,7.06185866,404.61057831142153,-166.4931124452208,1042.525684322517,-18.846408794994638,-27.13416191706562,1.4549284393444548,-17.70525647845581,-11.267392912328697,11.549444739975176,937.7501454011201,-384.60997669529047,5.799825721306039,-4.891326341920767,-28.36081997112238,39.46731869189657,-104.77141196139524,-18.47363300149454,-26.474272867745775
3.2666667,4.83303312,7.68881999,414.1679737830527,-184.52865256911045,936.679779710036,11.95737537560096,-2.050402381310069,-3.802590594951929,-17.898106107271637,-11.124186185396633,11.695647648737982,936.4898979116587,-313.0142386944117,-86.55235456730797,-34.642596567007175,-24.359201209435106,39.3505044696514,-105.99152753155049,-18.607541541466347,-26.01149549278846
3.283333299999999,6.04749065,8.35510445,382.37973955829517,-170.61895259915948,925.0674964317916,11.99493532151442,1.4614525615983487,-4.528749549278803,-18.09216582782451,-10.992726374699528,11.877187387319701,938.7810546123796,-388.96670932241136,-122.00894350961326,-29.715983661358464,-25.73013923527636,33.54749282602198,-106.66134656700717,-18.595021559495194,-25.56077614182695
3.299999999999999,6.93706646,7.98255145,374.2114765100667,-164.45651006711415,920.9093217944188,11.170593429883514,2.987152949487802,-4.659625574002135,-18.263267396679613,-10.911564818085484,12.000045920169546,940.0048251501237,-392.02303426351375,-132.9815648180858,-25.54139173436969,-26.418763687742835,30.31803602967158,-107.08127516778522,-18.62753444012716,-25.333366301660195
3.316666699999999,8.11368625,7.54348879,381.8610552067543,-163.48227127083788,921.7430271191075,9.769056915942237,3.182760349130013,-4.391852337598721,-18.41899367600642,-10.864087293900482,12.08360636273515,940.5137842093868,-346.2622973530409,-127.55773245519109,-21.87042956438529,-26.650454005765646,28.8120489625233,-107.33385559644944,-18.690204772051363,-25.25550316199679
3.3333332999999996,9.10283806,6.94978545,389.5105880060618,-162.5080383199827,922.5767274415742,8.367528811203176,3.37836657513018,-4.124080707831501,-18.574719020977426,-10.816610054580053,12.167166303939107,941.0227402149019,-300.5018350064387,-122.13393263522529,-18.19948942012973,-26.88214293364934,27.306070931279294,-107.58643450963412,-18.75287472795433,-25.177640489511287
3.3499999999999996,10.41582754,5.72327474,397.1601667027494,-161.53379952370645,923.4104327662628,6.9659922972619,3.5739739747723904,-3.856307471428087,-18.730445300304233,-10.76913253039505,12.25072674650471,941.531699274165,-254.74109809596578,-116.7101002723306,-14.52852725014533,-27.11383325167215,25.80008386413101,-107.83901493829833,-18.815545059878534,-25.099777349847884
3.3666666999999997,11.54515265,4.39501575,404.809745399437,-160.55956072743018,924.2441380909515,5.564455783320625,3.769581374414601,-3.5885342350246727,-18.88617157963104,-10.721655006210048,12.334287189070315,942.0406583334283,-208.9803611854929,-111.2862679094359,-10.857565080160935,-27.345523569694965,24.29409679698273,-108.09159536696255,-18.878215391802737,-25.021914210184477
3.3833333000000003,12.45793814,2.76277285,391.51034226738665,-153.31519587170555,908.2725441727531,0.4715266433788746,3.3217126071768517,-4.3345542076849854,-21.185595490631968,-10.556549063194657,13.483177262623068,946.2747460781194,-349.02974671324125,-143.76413813909267,-5.462172245157104,-30.858879580819263,27.25248021594156,-109.32021168624962,-19.41600171483011,-25.321791743410603
3.4000000000000004,13.17939691,2.25242078,398.93022644408563,-163.82949841137557,899.5791543830408,1.7093973644460725,2.065757200895887,-4.696979009323407,-22.46618391582896,-10.175933121516742,14.09421753737174,920.4539327569144,-308.3557595447683,-186.39201507891048,-1.9486353455909549,-28.6492554299703,26.972569014011146,-109.98173212146466,-19.64475311214126,-25.14471131308922
3.4166667000000004,13.51963003,2.92404082,397.5000275665399,-162.3971292775665,900.7988384030418,2.06531939163499,2.4108279467680696,-4.896642585551335,-22.99138593155895,-9.9849505703422,14.196219581749052,921.3003326996197,-325.8415142585556,-191.1079819391636,-3.762969581749095,-28.080648288973368,27.039846958174905,-110.2551844106464,-19.71854182509506,-25.099135931558934
3.4333332999999993,14.42672196,3.47793607,396.0698372701704,-160.96476873795515,902.0185151049533,2.42123928329599,2.7558966222198933,-5.09630496380019,-23.51658479608311,-9.793969165060687,14.298221014115315,922.1467275639355,-343.32716405802313,-195.82392050367187,-5.577292931923463,-27.5120445596125,27.107124498671805,-110.52863505911765,-19.792330095317464,-25.053560823480392
3.4499999999999993,15.60539691,4.10617589,394.63963839262465,-159.53239960414612,903.2381991249543,2.7771613104849076,3.1009673680920753,-5.2959685400281185,-24.041786811813097,-9.602986613886147,14.400223058492626,922.9931275066409,-360.81291877181036,-200.53988736392503,-7.391627168081603,-26.943437418615574,27.174402442835564,-110.80208734829938,-19.866118808271263,-25.0079854419501
3.4666666999999993,16.69114488,4.83200038,393.20943951507894,-158.10003047033706,904.4578831449554,3.133083337673825,3.4460381139642573,-5.495632116256048,-24.566988827543085,-9.412004062711606,14.502225102869938,923.8395274493463,-378.29867348559765,-205.25585422417817,-9.205961404239742,-26.374830277618642,27.24168038699932,-111.07553963748111,-19.939907521225063,-24.962410060419813
3.4833333,17.49820948,5.63367656,396.7636650631172,-146.83902134047094,916.8233824284732,-0.6634613520454282,0.1527487973378805,-6.546749195211055,-27.364551126704523,-8.743938004123416,14.664798712337687,939.4639790212318,-357.11467504611693,-198.0455394798713,-13.779937606250241,-23.7972882410388,26.66434057944804,-112.35107125547076,-20.328699678084423,-25.37216103012985
3.5,18.16172457,6.3102709,393.9525869140251,-145.36112384529875,924.5381187473647,-0.9213043811568078,-1.9152389896124768,-6.396586300739776,-27.565467055080685,-8.376306489325005,14.428321131511366,957.2522204760627,-387.2168273985204,-186.86108436505808,-11.55413699260224,-25.32154547893748,26.765578979646595,-112.57809728237955,-20.266474376173868,-25.5618467553375
3.5166667,18.64774022,6.5256575,390.6263593340744,-149.20907086000486,923.7054971188368,-1.3514567314449257,-2.8756286429785223,-6.266688808821087,-27.392980221549312,-8.235761662003144,14.364437119092338,947.0627204952278,-387.4766223823578,-181.19457246349035,-12.853111911789131,-26.141390304981666,26.59735108027649,-112.50569540163798,-20.13231795009391,-25.63211916899843
3.533333299999999,19.23764796,7.43798926,387.30015171144953,-153.05699478707476,922.8728804860286,-1.7816065008240738,-3.836012534018105,-6.1367920962858,-27.22049442293688,-8.09521767794857,14.300553489976624,936.8732816512713,-387.7364158074284,-175.52809456092643,-14.152079037142006,-26.961230211966676,26.42912419027177,-112.43329395530684,-19.998162328950908,-25.702391161025716
3.549999999999999,19.35278875,7.36573007,383.9739241314988,-156.90494180178084,922.0402588575006,-2.2117588511121915,-4.7964021873841505,-6.006894604367111,-27.048007589405508,-7.95467285062671,14.236669477557596,926.6837816704365,-387.99621079126575,-169.8615826593587,-15.451053956328895,-27.781075038010858,26.260896290901666,-112.36089207456527,-19.86400590287095,-25.772663574686646
3.566666699999999,18.37229719,7.02532523,380.6476965515481,-160.75288881648694,921.2076372289727,-2.6419112014003097,-5.756791840750196,-5.8769971124484215,-26.875520755874135,-7.81412802330485,14.172785465138569,916.4942816896015,-388.2560057751032,-164.19507075779097,-16.75002887551579,-28.600919864055044,26.09266839153156,-112.2884901938237,-19.729849476790992,-25.842935988347577
3.5833332999999996,15.93166254,6.20418556,389.5710240360372,-164.58625024372202,915.602500487444,-3.8739183110901756,-8.550961744041368,-12.079455978754103,-25.453812048273786,-7.2053801055568645,14.136922513194609,938.5934018892659,-381.98591313409764,-158.46952949877252,-25.673724106632633,-33.46016489057716,29.086165966315928,-111.38920314653579,-18.49150942952231,-25.691538743402695
3.5999999999999996,13.34160454,4.90826431,394.6359706861196,-166.5024136887753,919.4348273775506,-5.308239486334743,-12.377685817057145,-16.556106834302575,-24.775871180287094,-7.115735032104079,14.125716879013009,960.343537835748,-377.2011073385552,-194.988691296601,-23.247704306316628,-36.73781288869463,29.32708710122029,-110.84012707163748,-17.914419269170008,-25.697141560493495
3.6166666999999997,9.97340463,3.35628512,396.58768056226603,-161.7620080474696,921.6007731459114,-6.2125628095180545,-15.892926017634952,-18.870814787413938,-24.256204598985388,-7.083558506462133,14.100278536055079,968.4608263528205,-369.8247036477836,-218.22496183113896,-22.371149308491358,-39.92855272375888,29.472186646938034,-110.43550825884769,-17.47085642891654,-25.703697774489672
3.6333333000000003,7.5798522,2.3196552,395.29676894854447,-150.08844279200358,922.0310770171518,-6.564858376615542,-19.083717296775053,-18.933724710109917,-23.90139263498006,-7.111238872448364,14.060016185529651,962.3786950265732,-359.7490504287955,-227.62622067882617,-23.108453602488243,-43.02875371421677,29.517481791279142,-110.18135217115594,-17.166372403067996,-25.71124696521319
3.6500000000000004,5.74795321,1.41429463,394.00584958932234,-138.41480749486627,922.4613834702259,-6.917156057494875,-22.274527720739293,-18.996635010266942,-23.546578542094448,-7.138919404517455,14.019753593429158,956.296527207392,-349.6733367556466,-237.0275359342918,-23.84576232032856,-46.128973305954894,29.562777207392198,-109.92719455852155,-16.861886550308,-25.71879620123203
3.6666667000000004,5.50387534,1.1772869,392.7149302301002,-126.74117219772896,922.8916899233,-7.2694537383742075,-25.465338144703534,-19.059545310423964,-23.191764449208833,-7.166599936586545,13.979491001328663,950.214359388211,-339.5976230824977,-246.4288511897574,-24.583071038168878,-49.22919289769302,29.608072623505254,-109.67303694588718,-16.557400697548008,-25.726345437250878
3.6833332999999993,6.23770834,0.94170984,424.4172361146327,-158.9375323357819,929.4321162397487,-4.64137737763151,-67.76091402485335,-7.401439851212933,-21.536808944120402,-7.106949699890102,13.650865246428282,1023.1598482542829,-401.36586930425375,-248.78500228252608,-4.679845210922817,-66.49672364527838,29.811335954011312,-108.12935624313131,-15.242909544340202,-26.269637754670708
3.6999999999999993,7.75443431,0.54560409,442.7620187674353,-230.37228506213285,954.1971031645382,1.5439986473917813,-86.9792577563608,-11.7786383746159,-21.03427649561813,-7.0975565700115535,13.3455885253755,1194.4670544142864,-367.54120861160544,-247.29149463183708,7.2071606503785866,-70.36669315523982,30.154185194578282,-107.54228562572212,-14.759163355595023,-26.66884577450896
3.7166666999999993,9.15382312,0.42462713,461.01846624335207,-279.36567292642405,973.5768402254148,6.261352488292762,-105.06113388364115,-16.1612962139851,-20.542059846019537,-7.098794015398046,13.033268941979532,1322.2775834272577,-330.3275834272577,-243.4631758711013,16.2589125168665,-73.47327516469562,30.691751281847726,-106.99033656639416,-14.307407302166848,-27.03190089689657
3.7333333,9.9429223,0.7405564,478.9113491388206,-236.02378210969113,970.798853083578,4.938501468370502,-118.46690611953332,-20.566390110326225,-20.09229049924597,-7.143770950075402,12.69197337883959,1271.1202887848242,-279.1702887848241,-230.02830091277082,13.644958901500114,-73.43888103817764,32.03047651400905,-106.5828984522581,-13.987277355345661,-27.24620276212398
3.75,10.5538977,1.14583877,496.8043393920152,-192.6816312405747,968.0208492737519,3.615642511310423,-131.87275879038017,-24.97151043733629,-19.642518453845543,-7.188748154615445,12.350675767918089,1219.9626871973967,-228.0126871973967,-216.59334534486868,11.030989602349397,-73.40448670529408,33.36920977855385,-106.17545789348361,-13.667145487737123,-27.46050591316771
3.7666667,10.58416646,1.75968587,514.6973296452098,-149.33948037145825,965.2428454639257,2.2927835542503434,-145.27861146122703,-29.376630764346352,-19.192746408445117,-7.233725359155488,12.00937815699659,1168.8050856099694,-176.8550856099693,-203.1583897769665,8.41702030319868,-73.37009237241051,34.70794304309865,-105.7680173347091,-13.347013620128584,-27.674809064211445
3.783333299999999,10.89356845,2.34206024,513.9856683969753,-202.47519100825747,884.8721339961417,-19.741618951254665,-189.91997809255074,-35.37063901108514,-18.289773447123103,-7.333168748900217,11.389279693823752,1128.4995506774608,-155.30513997888303,-185.9322053492889,9.828944747492042,-86.92280292099021,43.89221133204156,-104.42027397501337,-12.38563074080604,-28.232915097659617
3.799999999999999,11.4768152,3.08674625,551.4386825865272,-273.6967051247636,843.2832626777563,3.8684411054438073,-214.03424738395486,-42.25287094177586,-17.40597263214385,-7.361768178159379,10.864754494231304,1061.916587067351,-273.3454762543512,-196.66681244969013,24.982766299972127,-100.45601824523708,51.73858867722009,-103.06459350684202,-11.415972632143854,-28.787123691977442
3.816666699999999,12.09790995,3.91951718,612.2115436007481,-302.3217114450094,855.2927471901731,54.58453892018935,-214.78949837521984,-48.647660584920516,-16.760034284351462,-7.336924395551979,10.51694153772771,980.2749486629145,-426.92477157677405,-219.47340488328297,43.06904003815903,-107.0594956622839,55.102436842261994,-102.18512360254006,-10.770034284351462,-29.164749187609914
3.8333332999999996,12.72035938,4.85461538,686.4127674037089,-320.03225784890293,966.5591799968563,46.39811521613983,-209.10274265719633,-44.73624104291386,-16.37859953578472,-7.37195843004485,10.216501614282478,927.3518887977528,-491.1896390464385,-259.1743643566423,48.11,-109.79581248145755,57.57358061813927,-101.56656997260083,-10.367620320762295,-29.551121481300495
3.8499999999999996,13.3058564,5.84850017,765.8036290815154,-333.52535941781093,1116.1816498839435,15.450367707370425,-200.92660372419343,-36.84223852986874,-16.099371738713117,-7.430130887768101,9.93436519432471,885.5258916947356,-520.9419425489951,-305.4040165093096,48.11,-111.03779445384896,59.69978394792408,-101.0488350988639,-10.059306294829065,-29.940876948046274
3.8666666999999997,13.68326119,6.85502335,845.1944907593219,-347.018460986719,1265.8041197710304,-15.497379801398978,-192.75046479119055,-28.948236016823607,-15.820143941641511,-7.488303345491351,9.652228774366945,843.6998945917184,-550.6942460515517,-351.63366866197697,48.11,-112.27977642624036,61.8259872777089,-100.53110022512696,-9.750992268895837,-30.330632414792053
3.8833333000000003,13.97021411,7.84526402,602.3630678118022,-569.0460165363534,1328.288534482756,-19.36092776567004,-143.55654473785168,-12.277378541212046,-15.393091590821676,-7.578407127291376,9.086946545314682,847.69877791309,-461.815123830272,-333.9515926804227,24.293693372643197,-94.79646974746724,56.26743218818061,-99.6940813998205,-9.227455454428902,-31.07289315472378
3.9000000000000004,14.53933694,8.99629627,-83.73668270531954,-911.7199266231531,1254.3216175984137,27.00698914383689,-28.766491143655337,8.346721498811858,-14.694291041409787,-7.716095389889636,8.133440591826295,902.0326794574911,-236.25964514480063,-215.22731783598465,-40.25311641054999,-43.33792800649512,34.9540408384203,-98.3677445644002,-8.342113192794624,-32.34354404113916
3.9166667000000004,14.72197342,9.91666869,-69.66774850389416,-488.5843255946762,1338.5096787958994,38.92573710642668,14.142003939494884,-5.376378552311294,-14.188070038793484,-7.791276726911859,7.797630619793697,832.8959219318547,-318.3676893513381,-210.69638925811196,-68.03512648482891,-17.114677653143644,20.589393378040842,-97.64099163985203,-7.800807566234616,-32.9299584699125
3.9333332999999993,14.65948917,10.66782946,-62.087500263697386,-211.81430284207482,1360.7630179314435,46.621358042777615,49.35566445941872,-16.072151948432182,-13.80959015528861,-7.859476530911219,7.6040592440668,789.2081820099618,-380.19550073249206,-217.88550471725597,-80.56938617052532,3.5897062994427276,6.871429944331187,-96.97294333431002,-7.311372927043679,-33.29739753882215
3.9499999999999993,14.6390921,11.10232897,-66.45642523683931,-204.58050903408574,1268.9602494384262,46.53996972360582,70.3994282644779,-21.193104990721494,-13.666346713546252,-7.914820587948038,7.672425432171107,792.3855819904286,-404.6771071393678,-246.65790331086873,-65.02421720871257,14.13112139857355,-5.655860142591417,-96.41299169840808,-6.917453462252193,-33.261586678386564
3.9666666999999993,13.60814505,11.65505203,-70.82535020998124,-197.34671522609662,1177.157480945409,46.45858140443403,91.44319206953708,-26.314058033010802,-13.523103271803894,-7.970164644984859,7.740791620275415,795.5629819708955,-429.1587135462436,-275.43030190448155,-49.47904824689983,24.672536497704368,-18.18315022951402,-95.85304006250614,-6.523533997460708,-33.225775817950975
3.9833333,13.29131046,11.97446462,-48.16428407908454,-222.98779318418283,1082.1299718002083,40.696985379812745,114.84199729448484,-24.666332726326793,-13.305793912591051,-8.116916337148801,7.938224921956294,787.4693956295527,-434.02536696149855,-311.91987939646185,-28.80846482830394,40.73311971904258,-34.68171368366278,-95.03205431841832,-5.984858740894904,-33.02990582726327
4.0,12.60392957,12.30098032,42.94965988749521,-319.5523017452762,994.1617354680516,21.29514957449868,142.5274544930046,-5.57360161546214,-12.923739795182458,-8.473206692629454,8.432977931631331,756.5608758113372,-399.67212058272065,-367.4019916342135,2.6628732150585286,68.95477888360027,-60.11585518534557,-93.64572306360883,-5.142365209865857,-32.47251839030722
4.0166667,12.00261179,12.66272729,127.3433091302465,-323.1919070820712,1011.6529959901918,8.424312736189265,158.09554178566276,13.922566998413345,-12.716998673013125,-8.65590814943026,8.692606317611423,767.825863003029,-442.04443476128654,-417.1737148132121,17.87998139333619,83.32088290783209,-76.85227021491414,-92.98222829943747,-4.767346430116834,-32.25616140199048
4.033333299999999,12.03751067,12.89241369,210.85339887743987,-322.5686835914415,1029.2930423273544,-4.028091453022797,173.18457079875475,32.609974585062055,-12.516799681387083,-8.832472973473617,8.946255168197974,779.3626980957306,-480.70826594917304,-464.5467583358033,32.41636725696497,97.36392614478304,-93.20629499481258,-92.33676231846475,-4.403453893746306,-32.04621780527564
4.049999999999999,10.84488323,13.33988178,276.5056987255434,-235.73722658566155,1049.944264226436,-8.020022969768522,178.58741701244773,34.94400414937742,-12.448878186129228,-8.884957765263778,9.079010818020144,796.398644042678,-444.37952800830146,-463.4167916419681,33.188202430349676,104.87542605216305,-101.82923755186657,-92.05581431535272,-4.264523562537058,-31.96594694724363
4.066666699999999,10.46086239,14.09593321,342.1579985736469,-148.90576957988156,1070.5954861255173,-12.011954486514247,183.9902632261407,37.278033713692786,-12.380956690871374,-8.937442557053938,9.211766467842313,813.4345899896254,-408.05079006742994,-462.28682494813285,33.96003760373439,112.38692595954305,-110.45218010892057,-91.77486631224068,-4.1255932313278105,-31.88567608921162
4.0833333,9.31392864,14.59832345,407.80990450874157,-62.07483356179847,1091.2465841175158,-16.00386205171892,189.39307702282144,39.61204927385886,-12.313035603141675,-8.98992703393598,9.344521321132182,830.470433721102,-371.72227009854873,-461.1568650340842,34.73186814611735,119.89838079801402,-119.075070928423,-91.49391999481328,-3.9866637336988777,-31.805405712803793
4.1,6.94490052,14.8977525,578.652653157397,-72.71729029217691,1151.1891517436375,-3.703437794533592,194.68238454288402,36.48196748350616,-11.95092365692743,-9.23800659754948,9.70320923656927,938.9151154571148,-411.6214326107441,-473.9113595664466,5.176776625824996,135.3189208294061,-129.34583883129116,-90.89258482563619,-3.904465127238455,-31.837601319509897
4.1166667,4.66618293,15.12964903,641.644468240754,-124.68485253746195,1133.2549328631173,1.0766459876502685,191.3926683928314,36.13826601727912,-11.849649278288343,-9.39143137511963,9.938360344533738,967.9109116247361,-435.6643251569935,-465.03474549339916,-3.4122094209263567,139.92779248003987,-131.94709989905215,-90.71722271457976,-3.940028488273005,-31.893128007131903
4.1333333,2.92529793,15.40215195,669.2236631750078,-181.49729489885735,1092.0718663030782,2.8202838863616084,185.82307816248655,36.88335439254299,-11.836539218899537,-9.507236899720759,10.126271195773306,969.938600810205,-450.65349305819626,-449.51243517705154,-4.491604310604805,141.15358303289332,-132.39939694796598,-90.6757075265152,-4.003393775318906,-31.947753254585265
4.15,0.6853309,15.6317438,696.8030235850921,-238.31007813626837,1050.8885526436527,4.563932246942124,180.25345451446682,37.628447238354966,-11.82342908085006,-9.62304311915781,10.314183174482485,971.9663021618575,-465.64275089476564,-433.99003172647014,-5.571005676678457,142.37938094051947,-132.85169671067297,-90.63419208935852,-4.066759442558047,-32.00237882979142
4.1666667,-1.53336916,15.68214481,724.3823839951764,-295.12286137367937,1009.7052389842272,6.30758060752264,174.68383086644712,38.37354008416694,-11.810318942800583,-9.738849338594862,10.502095153191663,973.99400351351,-480.63200873133496,-418.46762827588867,-6.650407042752111,143.6051788481456,-133.30399647337993,-90.59267665220185,-4.130125109797189,-32.05700440499758
4.183333299999999,-3.3470632,15.78573891,777.6614245530071,-334.8090997608481,1039.8388391982587,-0.7694878715394537,156.84789807539224,46.67404703336624,-12.903161257259814,-10.852343582735285,11.324827582279813,963.847191891586,-486.61112743423394,-418.974742853887,16.30080514747364,143.06679125384377,-130.1848399954453,-90.98833367498,-4.822500512470001,-32.64147841931434
4.199999999999999,-5.32583025,15.55718883,817.1440829108265,-134.65793220002908,1056.1829744507443,-20.021743712098292,134.3444537230342,60.47684064022257,-16.68971766577184,-10.456038373595876,12.462086688537621,932.5202525101905,-441.9513480465272,-464.105605925041,55.45799582463446,143.69173377075242,-122.04776220300243,-92.36453424793714,-6.906693508300969,-32.132802465453885
4.216666699999999,-6.4475113,15.29777495,825.4038117942273,11.843428690924291,969.5666323713948,-26.518493099121606,131.1970012547052,59.04408113759957,-18.486815140108728,-8.980660393140948,12.555836051861148,916.3712358845676,-402.20004893350153,-478.20238770389,55.24587034713533,145.83785947302383,-118.63093099121716,-93.06152237557507,-7.931873693015462,-31.320084483479704
4.2333333,-6.31942522,14.52580895,853.8690287821755,12.101128043293665,909.0748778373446,-29.313052469487847,128.85235960609862,52.204486850943574,-18.814220055004245,-8.919403989708883,12.526263995031874,904.8698180677541,-376.41532766814953,-465.8264819208395,48.368254844555985,145.8125119957416,-116.27361560396943,-93.33612004613259,-8.269840056778575,-31.696072063166167
4.25,-6.28003847,14.45235514,882.3344165621078,12.358828941865328,848.5827603513177,-32.10762860727728,126.50770388958595,45.364851526557956,-19.141626934337094,-8.858147218736931,12.496691760769552,893.3683312421581,-350.6304516938521,-453.4505018820578,41.49059807611881,145.7871643663739,-113.9162860727729,-93.61071936428273,-8.607808448347969,-32.07206189878712
4.2666667,-5.28713583,14.21330491,910.79980434204,12.61652984043699,788.0906428652906,-34.902204745066705,124.16304817307328,38.525216202172345,-19.469033813669945,-8.796890447764978,12.467119526507231,881.8668444165621,-324.84557571955463,-441.07452184327605,34.61294130768163,145.7618167370062,-111.55895654157638,-93.88531868243287,-8.945776839917364,-32.44805173440807
4.283333299999999,-5.01161455,13.78478494,939.2650213299852,12.874229192806336,727.5988883312469,-37.69676411543264,121.81840652446694,31.685621915517075,-19.796438728565427,-8.73563404433292,12.43754746967796,870.36542659975,-299.06085445420536,-428.69861606022687,27.735325805103017,145.73646925972395,-109.20164115432891,-94.15991635299036,-9.28374320368044,-32.82403931409449
4.299999999999999,-5.2910231,12.95893888,1188.6949526335825,66.89102614625835,777.25842212962,-48.969209549073,81.2042273588485,15.226303902994509,-20.90333535430081,-10.559918908677483,12.709008715422495,851.8115839333085,-350.74956498673885,-326.0133482379693,9.232387267903974,107.60243956044155,-71.06293141341547,-95.37024933686999,-11.506751799924139,-30.73233800682087
4.316666699999999,-5.87752565,11.8367576,1086.2471268125594,166.6195272950236,484.4599584044171,-32.904826607314526,74.9392073648585,3.8465992643143134,-21.586614004691324,-11.07185968653375,12.85949123040836,846.3066180029859,-332.13081666489114,-319.5566768845308,14.662511701674397,84.14955681575924,-55.55467932348923,-95.8664560187653,-12.373324408252456,-29.535850850303866
4.3333333,-6.71456083,9.75866343,1095.3032266366347,131.4257952340346,446.82505545633984,-29.01761181895737,64.27935378238652,-1.4222427231046382,-21.644366910118347,-11.00077918754665,12.855048699221665,838.7676425791665,-313.80093298859214,-300.1428155986785,9.096020124746953,76.19964725717054,-48.17341375679734,-96.0974676404734,-12.664310200980905,-29.586939958950847
4.35,-7.50625819,6.76486502,1104.3593807975262,96.2318520098099,409.18992669794295,-25.13037370721834,53.619436240537595,-6.691116323701775,-21.702120162064183,-10.929698262074849,12.850606141379679,831.2286219213137,-295.47093933255184,-280.72883782919325,3.5294951487366557,68.24968999893396,-40.79210390233516,-96.32848064825674,-12.955297739631085,-29.638029374133705
4.3666667,-8.44031431,2.45527285,1113.4155349584178,61.037908785585174,371.5547979395461,-21.243135595479302,42.95951869868867,-11.959989924298913,-21.75987341401002,-10.85861733660305,12.84616358353769,823.689601263461,-277.14094567651154,-261.31486005970805,-2.037029827273642,60.29973274069738,-33.41079404787298,-96.55949365604009,-13.246285278281263,-29.68911878931656
4.3833333,-9.34671398,-2.87109181,1122.471634782493,25.844176724596196,333.9198949914689,-17.35592080712215,32.29966511621668,-17.228831911717865,-21.817626319437043,-10.787536837615948,12.841721052350996,816.1506258396415,-258.8110620002126,-241.90099877385575,-7.603521404201086,52.34982318210867,-26.02952848118109,-96.79050527774817,-13.537271071009714,-29.74020789796354
4.4,-9.92984265,-8.39593496,1109.1391361875703,37.486041202482156,287.48822575669294,-11.729868714222087,-47.52854968635393,-24.100468241181908,-21.737435642546192,-10.22556336338395,12.859769307236142,867.0410746237962,-376.62333047681074,-233.81464299180755,-2.410442875261314,-15.415491721797608,37.20621430775036,-98.50774654646419,-15.139361395811196,-27.9111267267679
4.4166667,-10.04048098,-12.82865322,806.3299975662428,293.84802971926086,343.8361029376478,-34.027928598361484,-113.26297885030677,-19.85566719226682,-21.680305076611937,-10.059884722174614,12.87690847701642,998.7098899324718,-364.48879827237516,-257.2438880814452,36.255524149041904,-50.91642539334315,62.25225441332738,-99.17046111130155,-15.682101772186611,-27.57976944434923
4.433333299999999,-9.69102742,-14.66551956,625.2553046501997,234.9035811078009,612.733480861051,-17.595716515894203,-114.9046838217267,-20.483445598695585,-21.644377945144214,-10.012261654330608,12.897738345669392,1114.1731598926474,-243.93004842084935,-193.96179823688655,24.843219250026696,-54.73611431415854,64.50934639080079,-99.5146857118123,-15.933732329134731,-27.38597694383126
4.449999999999999,-8.77980245,-13.67576626,470.9700787776568,106.5674180842388,928.4098060857717,7.360207332379659,-102.44115006709157,-22.183564904990597,-21.613116911223653,-9.990619400077913,12.919380599922087,1226.0708284638295,-99.50888109770119,-111.59618794096477,2.409820369650241,-51.583559278016025,61.75116132104071,-99.78882093234644,-16.121298532658084,-27.222457689477565
4.466666699999999,-7.52735154,-11.98671094,316.6848529051138,-21.768744939323312,1244.0861313104924,32.316131180653514,-89.97761631245643,-23.88368421128561,-21.581855877303095,-9.968977145825217,12.941022854174783,1337.9684970350115,44.91228622544696,-29.230577645042956,-20.02357851072621,-48.43100424187351,58.99297625128063,-100.06295615288057,-16.308864736181437,-27.058938435123874
4.4833333,-6.59481777,-8.63019349,162.40055274206907,-150.104137947452,1559.7605624810615,57.27190529368467,-77.51415733887382,-25.583793316885245,-21.55059503094836,-9.947335021425788,12.962664978574212,1449.865494221529,189.3325870233295,53.13453845820845,-42.4568427909794,-45.278468121023266,56.23480773059777,-100.33708972860668,-16.496429814309828,-26.895420161883738
4.5,-5.53379916,-6.00362675,533.6343611584325,-493.7042146507663,1311.8539795570687,6.877124361158659,-95.94529216354346,-22.417443781942026,-21.504503407155024,-9.80236541737649,13.126565587734243,895.4802112436118,-390.7352172061326,-98.46054514480439,62.50681942078348,-60.615054514480306,58.72459369676317,-101.83351788756389,-17.697028109028963,-26.5048066439523
4.5166667,-4.45194783,-3.71250868,491.23412492901707,-433.2838780238493,1139.8301639977262,45.94591345826287,-97.96592842135153,-13.241767660420095,-21.471378222600794,-9.72191854060193,13.183351618398639,943.42654980125,-343.4845075241334,-148.71618228279453,33.70683753549081,-43.41835156161249,53.646976121521796,-102.35405650198751,-18.1181911697899,-26.301323367404883
4.533333299999999,-3.18936286,-1.0686303,459.3886179989603,-362.3315040749138,1037.635807005374,64.66059857811786,-95.35601127102538,-6.6324199757240505,-21.448136639500607,-9.660683197503037,13.237701924744233,987.9492396393251,-280.6224964452971,-169.80027119819835,6.729287671234141,-31.535525229755624,51.239257672966744,-102.78689474596843,-18.47012450147389,-26.125279348014573
4.549999999999999,-2.03823181,2.16316084,446.75138310449813,-272.2104164761942,1062.5240660813074,46.33266705550494,-84.31879218752528,-4.693484559484325,-21.44288207197692,-9.634410359884612,13.287620316219238,1026.2419004681788,-189.34803127512862,-137.79470041143367,-16.932029887918937,-29.323352302284285,53.690513422765754,-103.06013225720004,-18.696070904992343,-25.999169727446137
4.566666699999999,-0.63644905,5.98148412,434.1141482100359,-182.0893288774746,1087.412325157241,28.00473553289204,-73.28157310402516,-2.7545491432446,-21.437627504453236,-9.608137522266187,13.337538707694245,1064.5345612970325,-98.07356610496021,-105.78912962466899,-40.593347447072006,-27.11117937481294,56.14176917256476,-103.33336976843165,-18.922017308510792,-25.8730601068777
4.5833333,0.12065083,9.59157925,421.476989138831,-91.96878200419587,1112.3004349039197,9.676913977647672,-62.24442024370669,-0.8156253605940336,-21.432372968456892,-9.581864842284473,13.387456799659503,1102.826992370382,-6.799648580484188,-73.78375087094379,-64.25452303860452,-24.89901972035254,58.593010214858765,-103.6066056402415,-19.147962356353542,-25.746951242965466
4.6,0.91161014,12.92255973,450.9339429781984,-62.80612763703411,1108.726059669878,-65.64538617706918,-70.44430752935071,2.9110389266485885,-21.51080677906258,-9.51,13.64080677906258,955.81,-346.79171418483475,-31.04325271427154,-27.32347250419296,-43.96400035307638,51.352957895666165,-104.85763615500042,-20.050654073616368,-24.786035837231896
4.6166667,1.01052781,14.90660194,430.1024069202937,-154.1549632506519,1007.2017444611206,-27.67490978903814,-38.6575804278116,-1.2719413599316112,-21.613787536410978,-9.51,13.743787536410977,955.81,-364.15132756642197,-70.90661349927794,-22.782511489687373,-38.761020184188226,46.807093035572564,-105.40686686085854,-20.43805787506987,-24.462382028422642
4.6333333,1.69862456,16.24885352,410.71955728742586,-238.13832464813277,912.5089730138421,7.849263231359788,-8.784889031057308,-5.208595323950221,-21.714671513318603,-9.51,13.844813074328256,955.5438653018493,-379.95182877748044,-109.23874572525325,-18.782494009538265,-33.77486006746537,42.44689275328601,-105.93925229731302,-20.809767709666165,-24.14641014307316
4.65,1.71043859,16.59148472,411.9301456580461,-217.41830767838866,914.9279956832488,8.598880229537452,-6.120302172592451,-5.643717834386681,-21.78575588383545,-9.51,13.918051516678947,951.4942102542229,-373.58870058030567,-125.80571219934637,-22.4724190609128,-31.870660566347393,40.725789358044764,-106.23220606671579,-20.95839866620139,-23.93961924702415
4.6666667,1.95126076,16.03030566,413.1407340286664,-196.69829070864458,917.3470183526554,9.348497227715114,-3.4557153141275956,-6.078840344823141,-21.856840254352296,-9.51,13.991289959029638,947.4445552065964,-367.2255723831309,-142.3726786734395,-26.162344112287332,-29.96646106522942,39.00468596280352,-106.52515983611855,-21.10702962273662,-23.73282835097514
4.683333299999999,2.36334628,14.85879757,414.35131513577085,-175.97839805875512,919.766026507955,10.09810972819973,-0.7911444431521026,-6.513960244529729,-21.92792419836377,-9.51,14.064527961950548,943.394924456852,-360.8624823646494,-158.9395457459314,-29.852247024155577,-28.062272989285738,37.28359289416211,-106.8181118478022,-21.255659687487878,-23.52603869566904
4.699999999999999,3.20562922,13.37401363,415.56190350639105,-155.25838108901104,922.1850491773615,10.847726726377395,1.873442415312752,-6.949082754966189,-21.999008568880615,-9.51,14.137766404301239,939.3452694092256,-354.4993541674746,-175.50651222002455,-33.54217207553011,-26.158073488167766,35.56248949892087,-107.11106561720496,-21.404290644023103,-23.31924779962003
4.716666699999999,4.386685,11.69209481,390.2582147626522,-156.63528383259583,925.2839365125702,1.118520232057591,3.785696792790271,-4.826027219323499,-22.78169073594335,-9.460566351661985,14.959805670084268,959.4716469879976,-309.69514923194623,-119.29635399715605,-16.9269293246255,-29.960465027182817,27.504987521436092,-109.29451417521068,-22.36801360966175,-21.68755690152154
4.7333333,5.89827815,9.79780171,382.3892103477214,-200.43170562265087,912.6594750246288,-1.1801533914693185,0.964044514175229,-5.640900937716636,-23.353318568248984,-9.436241763053234,15.397648265041775,912.2637016455653,-356.6111995110735,-65.55117546612213,-6.32140869121034,-30.47736253511876,28.47188991863392,-110.38912066260444,-22.775450468858317,-20.933494654650275
4.75,7.31933772,7.71615798,388.11731296585987,-204.80440231894733,908.0746240912855,-1.1087135363945966,0.5649424864267931,-6.129336523419524,-23.82114198950952,-9.443301739210453,15.59551118063863,897.9685147694856,-355.0119168123679,-74.49267231066506,-6.068422747768446,-30.180543848348215,29.05634397717861,-111.10325664856906,-23.00541639826999,-20.525271924174106
4.7666667,8.90524944,5.52860402,398.5387932732124,-195.5689820711022,906.2648600349683,-0.2191684917640646,1.0020465169780026,-6.505092619858283,-24.253133692218025,-9.461194886659918,15.710538557099476,895.0340385877734,-336.6663283488238,-105.07206130180026,-9.388879681604827,-29.60285080212264,29.508784991257933,-111.68606202263734,-23.174123217079227,-20.236425401061318
4.783333299999999,9.82138696,6.04156267,408.9602110518074,-186.33361723566836,904.4551068372137,0.6703712156068118,1.4391479249102437,-6.880846461764946,-24.68512280298147,-9.479087926750712,15.825565243397433,892.0995800128833,-318.3208499585917,-135.65126681696634,-12.709316692739218,-29.02516122204845,29.961223290696566,-112.26886389988033,-23.342829023649568,-19.947580611024225
4.799999999999999,10.84370048,6.21888138,419.3816913591599,-177.0981969878232,902.6453427808965,1.5599162602373435,1.8762519554614532,-7.2566025582037055,-25.117114505689976,-9.496981074200177,15.940592619858277,889.165103831171,-299.9752614950477,-166.23065580810155,-16.0297736265756,-28.447468175822877,30.41366430477589,-112.8516692739486,-23.511535842458805,-19.658734087911437
4.816666699999999,12.16366144,6.02100232,396.0597903269879,-174.0254410237732,912.8602937425993,1.0302096730120927,1.5707517988887316,-6.066513981236867,-28.41290518262128,-9.442312050277817,16.205393842790773,930.7792869113765,-367.13614746333985,-115.39072638673713,-8.92969778668347,-31.66723271700518,29.21320457236541,-116.16626842153195,-24.634570270516413,-18.797355496857634
4.8333333,14.02025867,5.80485723,395.5638961046847,-161.79507025533619,916.9337105686612,1.52610389531529,2.8661489510276965,-6.992520539211204,-30.457203813340584,-9.118462762243077,16.41285979293803,925.7140816407082,-348.8538431247536,-142.6902093390407,-13.52430956067636,-31.87975881227798,29.55223429577678,-117.47684600904755,-25.30756957221361,-18.817596077359806
4.85,15.83883676,6.1855429,394.2478505023109,-160.37174550775293,916.4787609071931,1.6054617155297137,3.449279456112501,-7.798356025053073,-32.375554504737565,-8.886607126924932,16.68508627611926,921.5690635427634,-338.71742046002026,-155.00638336218148,-18.130548883852796,-32.284051854891935,30.22289430952336,-118.60356542531359,-25.86738923288306,-18.768971645759358
4.8666667,17.60383182,6.496858,391.63368778215954,-176.0537478096392,908.8563501543513,1.0255280062811223,2.905033975125361,-8.413977962563116,-34.094537499330826,-8.800360575293091,17.059812672864506,918.8805503470674,-341.4743360932174,-143.60696845166945,-22.755148462732592,-32.9918683820774,31.418449956281997,-119.43926477043593,-26.24806366767188,-18.61134863760461
4.8833333,18.28072739,6.83635199,389.01954074695306,-191.7356560197004,901.2339851358823,0.44559777662780564,2.360791759604556,-9.029596206348945,-35.81351018004681,-8.714114541139521,17.43453682125588,916.1920532824182,-344.23123518495396,-132.20762193750963,-27.379720294070577,-33.69968066237222,32.61399842972114,-120.27495910137225,-26.628735818418672,-18.453726575186018
4.9,17.44464225,6.31247899,386.15217750257943,-206.55645510835828,894.6237874097021,-0.12983230134160706,1.7197187822495423,-9.701483488132226,-37.70259029927799,-8.60688080495352,17.82869969040253,914.3552554179581,-347.60772961816434,-119.88328431372331,-31.531785345716585,-34.72057791537728,33.833413312693594,-121.19124613003115,-27.048630030959842,-18.283789989680052
4.9166667,15.49023167,5.22208409,374.95940119743426,-190.26234406272326,924.8219986600142,-0.5088559942979423,-2.612716863863295,-12.6701827512475,-45.83793799002156,-7.645068225231589,18.86383771917319,944.3694340983612,-374.3125201140421,-76.52403022095552,-18.70047210263735,-47.1721016108341,36.01178240912341,-125.06566337847478,-28.952115010691433,-17.704366471846054
4.933333299999999,12.1529711,3.5074958,379.7158563934424,-201.40033704917983,925.0548321311475,-0.7084275409835974,-5.710827540983464,-16.376511475409668,-49.520508196721146,-6.428632131147596,18.69277639344263,957.5934249180322,-390.32100918032717,-85.45723278688484,-21.774824262294942,-50.792899672130986,38.35912393442612,-126.81904196721304,-30.244578360655677,-17.85642098360655
4.949999999999999,7.41871643,0.50707424,384.47234012829614,-212.5383968638624,925.2876669992872,-0.9080002851033364,-8.808956806842268,-20.08286243763339,-53.20310049893062,-5.212188738417759,18.521714041339997,970.8174950819664,-406.3295942979319,-94.39048895224458,-24.84919486813949,-54.41371945830339,40.706479543834476,-128.57243107626502,-31.53704946543113,-18.00847640769778
4.966666699999999,3.38727974,-1.64958629,388.7740352508427,-197.7636864207631,932.0138483191985,-0.5503457647900486,-15.847637989168899,-22.502709308265928,-54.56060539491154,-5.065129661796268,18.39636885664658,974.3779544293449,-395.51492622867136,-123.15399586185589,-26.28489935628887,-55.649784050270696,41.51955343823435,-130.0173777459895,-32.22154189230608,-17.619437978951694
4.9833333,0.11515205,-3.18744962,393.07110149518064,-182.7267927863494,938.8057106195292,-0.18705350635196738,-22.926160587173385,-24.90952052041822,-55.89456915636387,-4.928895064881988,18.27148714280849,977.8405837675829,-384.42883590477174,-152.11803880998573,-27.704009740812626,-56.861704318653985,42.317093474336694,-131.45919389666562,-32.89987665610843,-17.224925292054092
5.0,-1.78570541,-4.58290898,397.368193522019,-167.68980893021353,945.5976136711965,0.1762409318483703,-30.00472565648309,-27.316346173495454,-57.22854092163073,-4.792659650556861,18.14660467967712,981.3032338816797,-373.34267906406455,-181.08225554306733,-29.123128640032697,-58.07363185858792,43.11463829569838,-132.90101869827322,-33.57821548993563,-16.83041023807091
5.0166667,-1.02573579,-5.25162031,401.51258604991466,-125.40031948621984,950.3012020973905,-0.7870759287863037,-58.64764823998105,-18.843889846353733,-57.889417445736115,-4.144623445248341,17.10628583042027,1029.3065807657924,-373.9172125843429,-203.7885965368671,-25.289633200552696,-75.26049524428944,45.196578652142136,-134.80178465165437,-32.99157710755221,-14.881224697179052
5.033333299999999,0.25760308,-5.3168075,409.29254464720594,-127.725360400193,960.8541343350687,1.7024362048935053,-80.69377986785013,-13.041075742246548,-57.35643701677475,-3.5688358002023657,16.43686059379724,1111.7694415508129,-368.76540785151394,-198.9367657661041,-17.5343172206197,-87.58892616879606,46.252522114387766,-135.3796119334008,-32.18063472851952,-13.735008718352267
5.049999999999999,1.75995353,-4.8808221,418.4917986285451,-158.2708805785568,974.4750256679273,6.042885299958495,-91.10253069534411,-12.86412697817915,-56.66529596182915,-3.2378375238880572,16.29530158254332,1188.1072201196537,-356.51638987771906,-186.4837362760903,-10.554208915702239,-91.30693196437691,46.3795088744832,-135.26927917462936,-31.82465545021923,-13.549732953622874
5.066666699999999,3.39307667,-4.10930166,427.69105260988425,-188.81640075692064,988.0959170007859,10.383334395023486,-101.51128152283809,-12.687178214111754,-55.97415490688355,-2.906839247573749,16.153742571289403,1264.4449986884945,-344.26737190392413,-174.0307067860765,-3.5741006107847753,-95.02493775995777,46.50649563457863,-135.1589464158579,-31.468676171918936,-13.364457188893482
5.0833333,4.61366794,-2.85674284,436.8902513958103,-219.36173766253108,1001.7167266084605,14.723757447446147,-111.91996989795238,-12.51023051173481,-55.28301799877596,-2.575842957245114,16.012184409387846,1340.7823192315827,-332.0184274240896,-161.57775201408975,3.4059658135668727,-98.7429212475486,46.63348163275502,-135.0486143190817,-31.112699029490027,-13.179182535816448
5.1,5.46323942,-1.52193435,446.08950537714946,-249.90725784089489,1015.3376179413191,19.064206542511137,-122.32872072544637,-12.333281747667412,-54.59187694383036,-2.2448446809308056,15.870625398133928,1417.1200978004235,-319.76940945029475,-149.12472252407596,10.386074118484334,-102.46092704312943,46.76046839285045,-134.9382815603103,-30.756719751189735,-12.993906771087055
5.1166667,5.55813477,0.74052585,409.50100311897654,-307.673681829333,977.306051305415,11.00026055721085,-240.51714504993754,-37.330290765726176,-47.769351428070856,-1.6081969511126635,15.328343963553538,1292.2972716313297,-181.638090800769,-113.61553453653407,5.111481969510829,-114.22922169265803,69.89094042404051,-130.47415198878576,-28.64700248817244,-15.313542316453447
5.1333333,6.43357122,2.7473991,417.6313368144386,-274.1652591203775,942.5068213071656,-12.041525670230225,-304.0178547748398,-44.34503988084829,-44.375871631329844,-1.9002347993692044,14.948694760820034,1299.9953893113723,-292.86362568775513,-113.75571270369721,21.781002347994182,-120.96361447345386,77.51312826353623,-127.7932445417907,-27.642392290169937,-17.007361836341385
5.15,8.01813189,4.5957114,518.2104782893766,-210.60491693749506,950.3280219826208,-2.984397779420142,-305.2579957596974,-47.28767299457417,-42.6666724784846,-2.207676202697624,14.75550346616824,1228.4526564657608,-369.9027826984529,-163.56799087777244,29.83106021508401,-124.43720098196488,76.26693052320303,-126.32160796730498,-27.00761329557974,-17.975448370133794
5.1666667,10.31418474,6.1047113,629.28151627077,-143.63404201246718,962.9861868662217,9.715612277349763,-299.43221776184544,-49.76816187075457,-41.14862258518957,-2.516865537779154,14.583473309807088,1147.916971238472,-443.0620937887968,-219.0174947902886,36.90289448063298,-127.54071799199377,74.01426536760903,-124.9872118895847,-26.414806675686584,-18.861171202209455
5.183333299999999,11.98330064,7.57063926,740.3518878272607,-76.66356891188988,975.6442758009845,22.415546134210835,-293.6064747185919,-52.24863586403129,-39.63058180017579,-2.826053017728362,14.411444185624822,1067.3817692243335,-516.220965924147,-274.4666660064428,43.974686315260726,-130.64421638095763,71.76161372797908,-123.65282381822496,-25.822003612626073,-19.74688871995869
5.199999999999999,13.17491458,8.63161261,851.4229258086541,-9.692693986862025,988.3024406845853,35.11555619098074,-287.78069672073997,-54.72912474021169,-38.11253190688076,-3.1352423528098914,14.239414029263669,986.8460839970446,-589.3802770144908,-329.91616991895893,51.0465205808097,-133.7477333909865,69.50894857238507,-122.31842774050467,-25.229196992732913,-20.632611552034348
5.216666699999999,14.08303772,9.59798682,-261.92011254183785,-502.9803628685269,847.5712043027718,154.75549204781387,-33.85471129880703,-22.840144860557057,-28.73162132270936,-4.176228844621502,12.819350533864581,784.2377790597603,-313.6280293864494,-250.744879585656,-59.495163537848455,-56.468021450201135,43.31770686852659,-114.38570189641452,-19.83695410358579,-24.040726820717083
5.2333333,15.32755017,10.57073708,-169.4530189322717,-485.2115096414344,1150.9166044621488,64.12637249402468,6.246057912350253,-35.50941689243017,-25.315964334661384,-4.388711394422309,12.123470183266939,794.6175516175298,-398.7060423266925,-274.8669610517926,-62.246812557768905,-22.04053631872538,30.88216564143437,-111.41625826294823,-17.47308573705181,-24.90128114741035
5.25,16.71977515,11.24812581,-133.89600670708117,-469.1706500709404,1211.8512053398688,29.98309815555272,28.165168321939817,-38.83577389397653,-23.428619244163556,-4.5828492196569055,11.652872436476205,787.810663614085,-420.5890010318587,-289.0281800593318,-60.06020056752228,-3.2076125370824844,20.543254869082993,-109.61576615503677,-16.121464594350577,-25.56140461756739
